trials.thisRepN,trials.thisTrialN,trials.thisN,trials.thisIndex,thisRow.t,notes,trial.started,num_distr,fixation.started,target.started,mouse.started,trial.stopped,mouse.x,mouse.y,mouse.leftButton,mouse.midButton,mouse.rightButton,mouse.time,participant,session,date,expName,psychopyVersion,frameRate,expStart
0,0,0,0,0.0908254,,0.0068714,10,0.0908254,0.0908254,0.0613566,2.1195208,[0.10807291666666667],[0.17447916666666666],[1],[0],[0],2.0567304,243412,1,2024-10-10_11h22.51.781,Visual Search Experiment,2024.1.5,None,2024-10-10 11h23.01.959625 +0530
1,0,1,0,2.1839988,,2.1288102,10,2.1839988,2.1839988,0.0386796,3.9034282,[-0.3463541666666667],[0.07942708333333333],[1],[0],[0],1.7363962,243412,1,2024-10-10_11h22.51.781,Visual Search Experiment,2024.1.5,None,2024-10-10 11h23.01.959625 +0530
2,0,2,0,3.9597659,,3.9063957,10,3.9597659,3.9597659,0.0395365,5.6695802,[0.22786458333333334],[-0.3567708333333333],[1],[0],[0],1.7237482,243412,1,2024-10-10_11h22.51.781,Visual Search Experiment,2024.1.5,None,2024-10-10 11h23.01.959625 +0530
3,0,3,0,5.7056788,,5.6722777,5,5.7056788,5.7056788,0.0229359,7.586315,[0.10416666666666667],[-0.2955729166666667],[1],[0],[0],1.8912013,243412,1,2024-10-10_11h22.51.781,Visual Search Experiment,2024.1.5,None,2024-10-10 11h23.01.959625 +0530
4,0,4,0,7.6547296,,7.590614,10,7.6547296,7.6547296,0.0473909,8.9860785,[-0.48828125],[-0.3229166666666667],[1],[0],[0],1.3484722,243412,1,2024-10-10_11h22.51.781,Visual Search Experiment,2024.1.5,None,2024-10-10 11h23.01.959625 +0530
5,0,5,0,9.0441597,,8.9893151,10,9.0441597,9.0441597,0.0425673,10.4693654,[-0.43359375],[-0.3046875],[1],[0],[0],1.4374625,243412,1,2024-10-10_11h22.51.781,Visual Search Experiment,2024.1.5,None,2024-10-10 11h23.01.959625 +0530
6,0,6,0,10.5585104,,10.4721395,10,10.5585104,10.5585104,0.0707686,11.853063,[-0.08984375],[-0.10416666666666667],[1],[0],[0],1.3102364,243412,1,2024-10-10_11h22.51.781,Visual Search Experiment,2024.1.5,None,2024-10-10 11h23.01.959625 +0530
7,0,7,0,11.9738289,,11.8556574,10,11.9738289,11.9738289,0.1000057,14.0521688,[0.4153645833333333],[0.22395833333333334],[1],[0],[0],2.0966242,243412,1,2024-10-10_11h22.51.781,Visual Search Experiment,2024.1.5,None,2024-10-10 11h23.01.959625 +0530
8,0,8,0,14.1099853,,14.0548568,10,14.1099853,14.1099853,0.0402903,17.1190473,[-0.4661458333333333],[-0.4375],[1],[0],[0],3.0239508,243412,1,2024-10-10_11h22.51.781,Visual Search Experiment,2024.1.5,None,2024-10-10 11h23.01.959625 +0530
9,0,9,0,17.1743163,,17.1217573,10,17.1743163,17.1743163,0.0379893,19.8519588,[-0.11588541666666667],[-0.2903645833333333],[1],[0],[0],2.6922658,243412,1,2024-10-10_11h22.51.781,Visual Search Experiment,2024.1.5,None,2024-10-10 11h23.01.959625 +0530
10,0,10,0,19.9088626,,19.8547933,10,19.9088626,19.9088626,0.0379375,21.2352164,[0.055989583333333336],[-0.16145833333333334],[1],[0],[0],1.3425939,243412,1,2024-10-10_11h22.51.781,Visual Search Experiment,2024.1.5,None,2024-10-10 11h23.01.959625 +0530
11,0,11,0,21.3055407,,21.2386861,5,21.3055407,21.3055407,0.0557635,22.6688734,[0.35546875],[-0.033854166666666664],[1],[0],[0],1.3748811,243412,1,2024-10-10_11h22.51.781,Visual Search Experiment,2024.1.5,None,2024-10-10 11h23.01.959625 +0530
12,0,12,0,22.7185707,,22.6717252,10,22.7185707,22.7185707,0.0330682,25.6514754,[-0.09375],[0.46875],[1],[0],[0],2.9468389,243412,1,2024-10-10_11h22.51.781,Visual Search Experiment,2024.1.5,None,2024-10-10 11h23.01.959625 +0530
13,0,13,0,25.682152,,25.6541588,5,25.682152,25.682152,0.0189663,27.2191855,[-0.13151041666666666],[0.057291666666666664],[1],[0],[0],1.5459863,243412,1,2024-10-10_11h22.51.781,Visual Search Experiment,2024.1.5,None,2024-10-10 11h23.01.959625 +0530
14,0,14,0,27.248163,,27.2231617,5,27.248163,27.248163,0.0165045,29.0849808,[0.23046875],[0.3841145833333333],[1],[0],[0],1.8453552,243412,1,2024-10-10_11h22.51.781,Visual Search Experiment,2024.1.5,None,2024-10-10 11h23.01.959625 +0530
15,0,15,0,29.1685965,,29.089802,10,29.1685965,29.1685965,0.0574775,31.5687993,[0.14583333333333334],[-0.3893229166666667],[1],[0],[0],2.4215476,243412,1,2024-10-10_11h22.51.781,Visual Search Experiment,2024.1.5,None,2024-10-10 11h23.01.959625 +0530
16,0,16,0,31.6183794,,31.5717981,10,31.6183794,31.6183794,0.0335736,33.5012829,[0.3776041666666667],[-0.10677083333333333],[1],[0],[0],1.8960602,243412,1,2024-10-10_11h22.51.781,Visual Search Experiment,2024.1.5,None,2024-10-10 11h23.01.959625 +0530
17,0,17,0,33.5292639,,33.5040956,5,33.5292639,33.5292639,0.0163588,34.8359206,[-0.15494791666666666],[0.036458333333333336],[1],[0],[0],1.3154532,243412,1,2024-10-10_11h22.51.781,Visual Search Experiment,2024.1.5,None,2024-10-10 11h23.01.959625 +0530
18,0,18,0,34.8781401,,34.841706,5,34.8781401,34.8781401,0.0272533,37.018959,[-0.0859375],[-0.4205729166666667],[1],[0],[0],2.1505415,243412,1,2024-10-10_11h22.51.781,Visual Search Experiment,2024.1.5,None,2024-10-10 11h23.01.959625 +0530
19,0,19,0,37.0747633,,37.0236903,10,37.0747633,37.0747633,0.0365022,38.8178952,[0.12890625],[-0.10026041666666667],[1],[0],[0],1.7580227,243412,1,2024-10-10_11h22.51.781,Visual Search Experiment,2024.1.5,None,2024-10-10 11h23.01.959625 +0530
20,0,20,0,38.8486617,,38.8210593,5,38.8486617,38.8486617,0.0181426,40.184653,[-0.08854166666666667],[0.09895833333333333],[1],[0],[0],1.3454409,243412,1,2024-10-10_11h22.51.781,Visual Search Experiment,2024.1.5,None,2024-10-10 11h23.01.959625 +0530
21,0,21,0,40.2511291,,40.1895634,10,40.2511291,40.2511291,0.0469329,41.6343285,[-0.17708333333333334],[0.057291666666666664],[1],[0],[0],1.3984446,243412,1,2024-10-10_11h22.51.781,Visual Search Experiment,2024.1.5,None,2024-10-10 11h23.01.959625 +0530
22,0,22,0,41.6698394,,41.6370857,5,41.6698394,41.6698394,0.0208482,43.0182617,[-0.2565104166666667],[-0.01171875],[1],[0],[0],1.3603768,243412,1,2024-10-10_11h22.51.781,Visual Search Experiment,2024.1.5,None,2024-10-10 11h23.01.959625 +0530
23,0,23,0,43.0566099,,43.0216497,5,43.0566099,43.0566099,0.0246493,44.3345823,[-0.16015625],[0.059895833333333336],[1],[0],[0],1.2884903,243412,1,2024-10-10_11h22.51.781,Visual Search Experiment,2024.1.5,None,2024-10-10 11h23.01.959625 +0530
24,0,24,0,44.3715724,,44.3377306,5,44.3715724,44.3715724,0.0246432,46.484254,[0.17447916666666666],[0.20833333333333334],[1],[0],[0],2.1224109,243412,1,2024-10-10_11h22.51.781,Visual Search Experiment,2024.1.5,None,2024-10-10 11h23.01.959625 +0530
25,0,25,0,46.5133295,,46.4869653,5,46.5133295,46.5133295,0.0175901,48.5839926,[0.42578125],[0.12760416666666666],[1],[0],[0],2.0795865,243412,1,2024-10-10_11h22.51.781,Visual Search Experiment,2024.1.5,None,2024-10-10 11h23.01.959625 +0530
26,0,26,0,48.6186767,,48.5867016,5,48.6186767,48.6186767,0.0231786,50.0839945,[0.006510416666666667],[-0.2552083333333333],[1],[0],[0],1.4741461,243412,1,2024-10-10_11h22.51.781,Visual Search Experiment,2024.1.5,None,2024-10-10 11h23.01.959625 +0530
27,0,27,0,50.1714412,,50.0867716,10,50.1714412,50.1714412,0.067168,52.067921,[-0.3111979166666667],[0.1328125],[1],[0],[0],1.9140456,243412,1,2024-10-10_11h22.51.781,Visual Search Experiment,2024.1.5,None,2024-10-10 11h23.01.959625 +0530
28,0,28,0,52.1179262,,52.0709135,10,52.1179262,52.1179262,0.0353189,54.4674418,[0.3111979166666667],[0.4348958333333333],[1],[0],[0],2.3612071,243412,1,2024-10-10_11h22.51.781,Visual Search Experiment,2024.1.5,None,2024-10-10 11h23.01.959625 +0530
29,0,29,0,54.5252105,,54.4723435,10,54.5252105,54.5252105,0.0407074,56.2337821,[0.1640625],[-0.17057291666666666],[1],[0],[0],1.7208487,243412,1,2024-10-10_11h22.51.781,Visual Search Experiment,2024.1.5,None,2024-10-10 11h23.01.959625 +0530
30,0,30,0,56.3279697,,56.2366746,10,56.3279697,56.3279697,0.0770588,58.7836411,[-0.2955729166666667],[-0.24348958333333334],[1],[0],[0],2.4698235,243412,1,2024-10-10_11h22.51.781,Visual Search Experiment,2024.1.5,None,2024-10-10 11h23.01.959625 +0530
31,0,31,0,58.8350365,,58.7864518,10,58.8350365,58.8350365,0.0356572,60.1957914,[-0.0013020833333333333],[-0.13802083333333334],[1],[0],[0],1.3738901,243412,1,2024-10-10_11h22.51.781,Visual Search Experiment,2024.1.5,None,2024-10-10 11h23.01.959625 +0530
32,0,32,0,60.2251031,,60.1993207,5,60.2251031,60.2251031,0.0178181,62.0013684,[0.24348958333333334],[0.4361979166666667],[1],[0],[0],1.7842592,243412,1,2024-10-10_11h22.51.781,Visual Search Experiment,2024.1.5,None,2024-10-10 11h23.01.959625 +0530
33,0,33,0,62.0433405,,62.005441,5,62.0433405,62.0433405,0.0284565,63.6168309,[-0.3138020833333333],[0.21354166666666666],[1],[0],[0],1.5831518,243412,1,2024-10-10_11h22.51.781,Visual Search Experiment,2024.1.5,None,2024-10-10 11h23.01.959625 +0530
34,0,34,0,63.6478782,,63.6217577,5,63.6478782,63.6478782,0.0185473,65.6495921,[0.05078125],[0.4752604166666667],[1],[0],[0],2.0098025,243412,1,2024-10-10_11h22.51.781,Visual Search Experiment,2024.1.5,None,2024-10-10 11h23.01.959625 +0530
35,0,35,0,65.7292448,,65.6523194,10,65.7292448,65.7292448,0.0656894,66.8828185,[-0.19140625],[0.06640625],[1],[0],[0],1.1648391,243412,1,2024-10-10_11h22.51.781,Visual Search Experiment,2024.1.5,None,2024-10-10 11h23.01.959625 +0530
36,0,36,0,66.9975812,,66.8854801,10,66.9975812,66.9975812,0.0995635,68.2163886,[-0.1796875],[-0.13020833333333334],[1],[0],[0],1.2314209,243412,1,2024-10-10_11h22.51.781,Visual Search Experiment,2024.1.5,None,2024-10-10 11h23.01.959625 +0530
37,0,37,0,68.2477742,,68.2204878,5,68.2477742,68.2477742,0.0165293,69.4500308,[-0.2799479166666667],[0.026041666666666668],[1],[0],[0],1.2131647,243412,1,2024-10-10_11h22.51.781,Visual Search Experiment,2024.1.5,None,2024-10-10 11h23.01.959625 +0530
38,0,38,0,69.4872049,,69.452748,5,69.4872049,69.4872049,0.0253056,70.9170756,[0.2721354166666667],[-0.10807291666666667],[1],[0],[0],1.4386976,243412,1,2024-10-10_11h22.51.781,Visual Search Experiment,2024.1.5,None,2024-10-10 11h23.01.959625 +0530
39,0,39,0,70.955166,,70.9216474,5,70.955166,70.955166,0.0221145,72.6997282,[0.3736979166666667],[0.055989583333333336],[1],[0],[0],1.756237,243412,1,2024-10-10_11h22.51.781,Visual Search Experiment,2024.1.5,None,2024-10-10 11h23.01.959625 +0530
40,0,40,0,72.7570975,,72.7025105,10,72.7570975,72.7570975,0.0391683,74.3995808,[-0.24348958333333334],[-0.20182291666666666],[1],[0],[0],1.6580686,243412,1,2024-10-10_11h22.51.781,Visual Search Experiment,2024.1.5,None,2024-10-10 11h23.01.959625 +0530
41,0,41,0,74.4554985,,74.4023505,10,74.4554985,74.4554985,0.0374881,76.8328925,[-0.3932291666666667],[0.2916666666666667],[1],[0],[0],2.3931521,243412,1,2024-10-10_11h22.51.781,Visual Search Experiment,2024.1.5,None,2024-10-10 11h23.01.959625 +0530
42,0,42,0,76.8634939,,76.8355881,5,76.8634939,76.8634939,0.0182176,78.5828084,[0.05078125],[-0.26953125],[1],[0],[0],1.729016,243412,1,2024-10-10_11h22.51.781,Visual Search Experiment,2024.1.5,None,2024-10-10 11h23.01.959625 +0530
43,0,43,0,78.6449059,,78.5855156,5,78.6449059,78.6449059,0.0501126,80.6325586,[-0.13932291666666666],[0.41796875],[1],[0],[0],1.9971134,243412,1,2024-10-10_11h22.51.781,Visual Search Experiment,2024.1.5,None,2024-10-10 11h23.01.959625 +0530
44,0,44,0,80.6958938,,80.6352775,10,80.6958938,80.6958938,0.046954,83.4156614,[-0.4375],[-0.3697916666666667],[1],[0],[0],2.7335097,243412,1,2024-10-10_11h22.51.781,Visual Search Experiment,2024.1.5,None,2024-10-10 11h23.01.959625 +0530
45,0,45,0,83.4715263,,83.4194328,10,83.4715263,83.4715263,0.0348818,87.1991644,[0.13802083333333334],[-0.1171875],[1],[0],[0],3.7453655,243412,1,2024-10-10_11h22.51.781,Visual Search Experiment,2024.1.5,None,2024-10-10 11h23.01.959625 +0530
46,0,46,0,87.2838442,,87.2019339,10,87.2838442,87.2838442,0.0672025,89.2156635,[-0.13541666666666666],[0.4244791666666667],[1],[0],[0],1.9465181,243412,1,2024-10-10_11h22.51.781,Visual Search Experiment,2024.1.5,None,2024-10-10 11h23.01.959625 +0530
47,0,47,0,89.2482629,,89.2191064,5,89.2482629,89.2482629,0.0192206,90.6822372,[0.11197916666666667],[-0.171875],[1],[0],[0],1.4443551,243412,1,2024-10-10_11h22.51.781,Visual Search Experiment,2024.1.5,None,2024-10-10 11h23.01.959625 +0530
48,0,48,0,90.7121881,,90.6849334,5,90.7121881,90.7121881,0.0174199,92.1492271,[0.11328125],[-0.0390625],[1],[0],[0],1.4468393,243412,1,2024-10-10_11h22.51.781,Visual Search Experiment,2024.1.5,None,2024-10-10 11h23.01.959625 +0530
49,0,49,0,92.235493,,92.1544026,10,92.235493,92.235493,0.0596696,93.4987365,[-0.2591145833333333],[0.3893229166666667],[1],[0],[0],1.2851564,243412,1,2024-10-10_11h22.51.781,Visual Search Experiment,2024.1.5,None,2024-10-10 11h23.01.959625 +0530
50,0,50,0,93.5271132,,93.5016787,5,93.5271132,93.5271132,0.017788,94.9324877,[0.14322916666666666],[0.0013020833333333333],[1],[0],[0],1.4129075,243412,1,2024-10-10_11h22.51.781,Visual Search Experiment,2024.1.5,None,2024-10-10 11h23.01.959625 +0530
51,0,51,0,94.9626619,,94.9353982,5,94.9626619,94.9626619,0.018883,96.6651,[0.45703125],[-0.22786458333333334],[1],[0],[0],1.710944,243412,1,2024-10-10_11h22.51.781,Visual Search Experiment,2024.1.5,None,2024-10-10 11h23.01.959625 +0530
52,0,52,0,96.7335567,,96.6685467,10,96.7335567,96.7335567,0.051581,98.7815469,[0.3138020833333333],[-0.15364583333333334],[1],[0],[0],2.0617575,243412,1,2024-10-10_11h22.51.781,Visual Search Experiment,2024.1.5,None,2024-10-10 11h23.01.959625 +0530
53,0,53,0,98.8108752,,98.784176,5,98.8108752,98.8108752,0.0185539,100.1315901,[0.19140625],[0.08463541666666667],[1],[0],[0],1.328995,243412,1,2024-10-10_11h22.51.781,Visual Search Experiment,2024.1.5,None,2024-10-10 11h23.01.959625 +0530
54,0,54,0,100.1592646,,100.1343294,5,100.1592646,100.1592646,0.0176952,101.7983935,[-0.11979166666666667],[-0.109375],[1],[0],[0],1.6461509,243412,1,2024-10-10_11h22.51.781,Visual Search Experiment,2024.1.5,None,2024-10-10 11h23.01.959625 +0530
55,0,55,0,101.8362128,,101.8027198,5,101.8362128,101.8362128,0.0224864,103.3821622,[0.3177083333333333],[0.2981770833333333],[1],[0],[0],1.5570529,243412,1,2024-10-10_11h22.51.781,Visual Search Experiment,2024.1.5,None,2024-10-10 11h23.01.959625 +0530
56,0,56,0,103.4130136,,103.3849296,5,103.4130136,103.4130136,0.0206139,105.0148766,[0.3645833333333333],[0.46875],[1],[0],[0],1.609419,243412,1,2024-10-10_11h22.51.781,Visual Search Experiment,2024.1.5,None,2024-10-10 11h23.01.959625 +0530
57,0,57,0,105.0508612,,105.0197594,5,105.0508612,105.0508612,0.0201854,106.4986564,[-0.40625],[0.1171875],[1],[0],[0],1.4585808,243412,1,2024-10-10_11h22.51.781,Visual Search Experiment,2024.1.5,None,2024-10-10 11h23.01.959625 +0530
58,0,58,0,106.5466202,,106.5027022,10,106.5466202,106.5466202,0.0318212,107.7981817,[-0.10546875],[0.048177083333333336],[1],[0],[0],1.2636834,243412,1,2024-10-10_11h22.51.781,Visual Search Experiment,2024.1.5,None,2024-10-10 11h23.01.959625 +0530
59,0,59,0,107.8570805,,107.8014803,5,107.8570805,107.8570805,0.0484547,108.9816655,[-0.3098958333333333],[0.07421875],[1],[0],[0],1.1317724,243412,1,2024-10-10_11h22.51.781,Visual Search Experiment,2024.1.5,None,2024-10-10 11h23.01.959625 +0530
60,0,60,0,109.0863284,,108.9865583,10,109.0863284,109.0863284,0.0794539,111.0812182,[-0.3671875],[-0.28515625],[1],[0],[0],2.0157228,243412,1,2024-10-10_11h22.51.781,Visual Search Experiment,2024.1.5,None,2024-10-10 11h23.01.959625 +0530
61,0,61,0,111.1081298,,111.0851227,5,111.1081298,111.1081298,0.015814,112.7152737,[-0.3828125],[0.049479166666666664],[1],[0],[0],1.6144298,243412,1,2024-10-10_11h22.51.781,Visual Search Experiment,2024.1.5,None,2024-10-10 11h23.01.959625 +0530
62,0,62,0,112.7480735,,112.7185685,5,112.7480735,112.7480735,0.0221793,114.7309625,[-0.13932291666666666],[-0.31640625],[1],[0],[0],1.9904619,243412,1,2024-10-10_11h22.51.781,Visual Search Experiment,2024.1.5,None,2024-10-10 11h23.01.959625 +0530
63,0,63,0,114.7640298,,114.7342882,5,114.7640298,114.7640298,0.0203202,116.4636965,[0.12109375],[-0.3098958333333333],[1],[0],[0],1.7092573,243412,1,2024-10-10_11h22.51.781,Visual Search Experiment,2024.1.5,None,2024-10-10 11h23.01.959625 +0530
64,0,64,0,116.4943411,,116.4663512,5,116.4943411,116.4943411,0.019161,117.8472341,[-0.14453125],[0.22786458333333334],[1],[0],[0],1.3617675,243412,1,2024-10-10_11h22.51.781,Visual Search Experiment,2024.1.5,None,2024-10-10 11h23.01.959625 +0530
65,0,65,0,117.9064566,,117.8520699,10,117.9064566,117.9064566,0.0394437,119.2313684,[-0.08203125],[0.34375],[1],[0],[0],1.3399733,243412,1,2024-10-10_11h22.51.781,Visual Search Experiment,2024.1.5,None,2024-10-10 11h23.01.959625 +0530
66,0,66,0,119.2903861,,119.2374399,10,119.2903861,119.2903861,0.0366528,120.6972875,[-0.09244791666666667],[0.3098958333333333],[1],[0],[0],1.423498,243412,1,2024-10-10_11h22.51.781,Visual Search Experiment,2024.1.5,None,2024-10-10 11h23.01.959625 +0530
67,0,67,0,120.7481248,,120.700853,10,120.7481248,120.7481248,0.0328195,121.9974123,[0.11588541666666667],[0.09244791666666667],[1],[0],[0],1.2636879,243412,1,2024-10-10_11h22.51.781,Visual Search Experiment,2024.1.5,None,2024-10-10 11h23.01.959625 +0530
68,0,68,0,122.1251725,,122.0002615,10,122.1251725,122.1251725,0.110844,126.2633908,[0.4270833333333333],[-0.4674479166666667],[1],[0],[0],4.1523339,243412,1,2024-10-10_11h22.51.781,Visual Search Experiment,2024.1.5,None,2024-10-10 11h23.01.959625 +0530
69,0,69,0,126.2942708,,126.2659855,5,126.2942708,126.2942708,0.0187601,128.1466134,[0.014322916666666666],[-0.4765625],[1],[0],[0],1.8619839,243412,1,2024-10-10_11h22.51.781,Visual Search Experiment,2024.1.5,None,2024-10-10 11h23.01.959625 +0530
70,0,70,0,128.2047527,,128.1513611,10,128.2047527,128.2047527,0.0362256,131.5630125,[-0.028645833333333332],[-0.1640625],[1],[0],[0],3.3760101,243412,1,2024-10-10_11h22.51.781,Visual Search Experiment,2024.1.5,None,2024-10-10 11h23.01.959625 +0530
71,0,71,0,131.5970306,,131.565808,5,131.5970306,131.5970306,0.0208149,132.9963818,[0.041666666666666664],[-0.0390625],[1],[0],[0],1.4098554,243412,1,2024-10-10_11h22.51.781,Visual Search Experiment,2024.1.5,None,2024-10-10 11h23.01.959625 +0530
72,0,72,0,133.0839046,,133.0000803,10,133.0839046,133.0839046,0.0673824,134.1963653,[0.032552083333333336],[0.03125],[1],[0],[0],1.1290845,243412,1,2024-10-10_11h22.51.781,Visual Search Experiment,2024.1.5,None,2024-10-10 11h23.01.959625 +0530
73,0,73,0,134.231481,,134.1999839,5,134.231481,134.231481,0.0222608,135.5462581,[0.11848958333333333],[0.03515625],[1],[0],[0],1.3240706,243412,1,2024-10-10_11h22.51.781,Visual Search Experiment,2024.1.5,None,2024-10-10 11h23.01.959625 +0530
74,0,74,0,135.5778518,,135.5507083,5,135.5778518,135.5778518,0.0181682,137.3937038,[0.4817708333333333],[-0.4440104166666667],[1],[0],[0],1.8252965,243412,1,2024-10-10_11h22.51.781,Visual Search Experiment,2024.1.5,None,2024-10-10 11h23.01.959625 +0530
75,0,75,0,137.4237135,,137.396792,5,137.4237135,137.4237135,0.0181571,138.9630816,[-0.26953125],[-0.11588541666666667],[1],[0],[0],1.5483473,243412,1,2024-10-10_11h22.51.781,Visual Search Experiment,2024.1.5,None,2024-10-10 11h23.01.959625 +0530
76,0,76,0,138.9934361,,138.9658753,5,138.9934361,138.9934361,0.0182384,141.1459307,[-0.11588541666666667],[0.16666666666666666],[1],[0],[0],2.1619445,243412,1,2024-10-10_11h22.51.781,Visual Search Experiment,2024.1.5,None,2024-10-10 11h23.01.959625 +0530
77,0,77,0,141.201582,,141.1492901,10,141.201582,141.201582,0.0361356,144.0132317,[0.20572916666666666],[0.46484375],[1],[0],[0],2.8278839,243412,1,2024-10-10_11h22.51.781,Visual Search Experiment,2024.1.5,None,2024-10-10 11h23.01.959625 +0530
78,0,78,0,144.0637679,,144.0159115,10,144.0637679,144.0637679,0.0339609,145.7959231,[0.20833333333333334],[-0.3776041666666667],[1],[0],[0],1.746095,243412,1,2024-10-10_11h22.51.781,Visual Search Experiment,2024.1.5,None,2024-10-10 11h23.01.959625 +0530
79,0,79,0,145.8807598,,145.799972,10,145.8807598,145.8807598,0.067057,147.8124358,[0.46484375],[-0.25],[1],[0],[0],1.9459182,243412,1,2024-10-10_11h22.51.781,Visual Search Experiment,2024.1.5,None,2024-10-10 11h23.01.959625 +0530
80,0,80,0,147.8430558,,147.8151445,5,147.8430558,147.8430558,0.017756,150.512444,[-0.4244791666666667],[-0.3020833333333333],[1],[0],[0],2.6797066,243412,1,2024-10-10_11h22.51.781,Visual Search Experiment,2024.1.5,None,2024-10-10 11h23.01.959625 +0530
81,0,81,0,150.5648624,,150.5151667,10,150.5648624,150.5648624,0.0356747,152.3622899,[-0.2864583333333333],[-0.20052083333333334],[1],[0],[0],1.811549,243412,1,2024-10-10_11h22.51.781,Visual Search Experiment,2024.1.5,None,2024-10-10 11h23.01.959625 +0530
82,0,82,0,152.4532947,,152.3650436,10,152.4532947,152.4532947,0.0721433,155.0120421,[-0.3606770833333333],[0.25],[1],[0],[0],2.5749739,243412,1,2024-10-10_11h22.51.781,Visual Search Experiment,2024.1.5,None,2024-10-10 11h23.01.959625 +0530
83,0,83,0,155.0657353,,155.0147524,10,155.0657353,155.0657353,0.0334354,157.5618652,[-0.3932291666666667],[-0.12630208333333334],[1],[0],[0],2.5138319,243412,1,2024-10-10_11h22.51.781,Visual Search Experiment,2024.1.5,None,2024-10-10 11h23.01.959625 +0530
84,0,84,0,157.6303592,,157.5646086,5,157.6303592,157.6303592,0.0559795,166.5623523,[-0.09375],[-0.19010416666666666],[1],[0],[0],8.9416678,243412,1,2024-10-10_11h22.51.781,Visual Search Experiment,2024.1.5,None,2024-10-10 11h23.01.959625 +0530
85,0,85,0,166.6779759,,166.5653936,10,166.6779759,166.6779759,0.0315992,169.6453914,[0.4348958333333333],[0.4140625],[1],[0],[0],3.0485025,243412,1,2024-10-10_11h22.51.781,Visual Search Experiment,2024.1.5,None,2024-10-10 11h23.01.959625 +0530
86,0,86,0,169.6983101,,169.6485806,10,169.6983101,169.6983101,0.0343946,171.1283164,[0.13802083333333334],[0.040364583333333336],[1],[0],[0],1.4454349,243412,1,2024-10-10_11h22.51.781,Visual Search Experiment,2024.1.5,None,2024-10-10 11h23.01.959625 +0530
87,0,87,0,171.1630889,,171.1330469,5,171.1630889,171.1630889,0.0198425,172.3287344,[0.3111979166666667],[0.2265625],[1],[0],[0],1.1763232,243412,1,2024-10-10_11h22.51.781,Visual Search Experiment,2024.1.5,None,2024-10-10 11h23.01.959625 +0530
88,0,88,0,172.4283635,,172.3327756,5,172.4283635,172.4283635,0.0875073,173.9282784,[-0.06770833333333333],[0.44921875],[1],[0],[0],1.507724,243412,1,2024-10-10_11h22.51.781,Visual Search Experiment,2024.1.5,None,2024-10-10 11h23.01.959625 +0530
89,0,89,0,173.9809368,,173.9336835,10,173.9809368,173.9809368,0.0343904,175.4780143,[0.028645833333333332],[-0.13151041666666666],[1],[0],[0],1.5103398,243412,1,2024-10-10_11h22.51.781,Visual Search Experiment,2024.1.5,None,2024-10-10 11h23.01.959625 +0530
90,0,90,0,175.54042,,175.4814529,5,175.54042,175.54042,0.0502378,177.2108956,[-0.2864583333333333],[0.028645833333333332],[1],[0],[0],1.6792635,243412,1,2024-10-10_11h22.51.781,Visual Search Experiment,2024.1.5,None,2024-10-10 11h23.01.959625 +0530
91,0,91,0,177.3288396,,177.2135933,10,177.3288396,177.3288396,0.1011358,178.9612128,[0.4934895833333333],[0.11328125],[1],[0],[0],1.6466321,243412,1,2024-10-10_11h22.51.781,Visual Search Experiment,2024.1.5,None,2024-10-10 11h23.01.959625 +0530
92,0,92,0,179.0231907,,178.9639568,5,179.0231907,179.0231907,0.0505434,181.1613328,[-0.19921875],[0.41015625],[1],[0],[0],2.1469347,243412,1,2024-10-10_11h22.51.781,Visual Search Experiment,2024.1.5,None,2024-10-10 11h23.01.959625 +0530
93,0,93,0,181.1896859,,181.1647876,5,181.1896859,181.1896859,0.0172755,182.5778979,[0.036458333333333336],[-0.03515625],[1],[0],[0],1.3957825,243412,1,2024-10-10_11h22.51.781,Visual Search Experiment,2024.1.5,None,2024-10-10 11h23.01.959625 +0530
94,0,94,0,182.6058821,,182.5809886,5,182.6058821,182.6058821,0.0180154,183.7937965,[-0.3346354166666667],[-0.016927083333333332],[1],[0],[0],1.1949192,243412,1,2024-10-10_11h22.51.781,Visual Search Experiment,2024.1.5,None,2024-10-10 11h23.01.959625 +0530
95,0,95,0,183.8222838,,183.7965223,5,183.8222838,183.8222838,0.0176778,184.9613897,[-0.4166666666666667],[0.04296875],[1],[0],[0],1.1472926,243412,1,2024-10-10_11h22.51.781,Visual Search Experiment,2024.1.5,None,2024-10-10 11h23.01.959625 +0530
96,0,96,0,185.0196768,,184.9641416,5,185.0196768,185.0196768,0.0479731,186.7272619,[-0.4244791666666667],[-0.41015625],[1],[0],[0],1.7151693,243412,1,2024-10-10_11h22.51.781,Visual Search Experiment,2024.1.5,None,2024-10-10 11h23.01.959625 +0530
97,0,97,0,186.7598434,,186.7320874,5,186.7598434,186.7598434,0.0190964,188.2276211,[0.016927083333333332],[0.3151041666666667],[1],[0],[0],1.4765181,243412,1,2024-10-10_11h22.51.781,Visual Search Experiment,2024.1.5,None,2024-10-10 11h23.01.959625 +0530
98,0,98,0,188.3139089,,188.2322254,10,188.3139089,188.3139089,0.0679829,189.8609632,[-0.296875],[-0.4518229166666667],[1],[0],[0],1.5608053,243412,1,2024-10-10_11h22.51.781,Visual Search Experiment,2024.1.5,None,2024-10-10 11h23.01.959625 +0530
99,0,99,0,189.9087651,,189.8636067,10,189.9087651,189.9087651,0.0332923,191.6612073,[-0.2981770833333333],[0.21223958333333334],[1],[0],[0],1.7641403,243412,1,2024-10-10_11h22.51.781,Visual Search Experiment,2024.1.5,None,2024-10-10 11h23.01.959625 +0530
100,0,100,0,191.6911155,,191.6646724,5,191.6911155,191.6911155,0.0173289,193.2102209,[0.4361979166666667],[0.20442708333333334],[1],[0],[0],1.5284255,243412,1,2024-10-10_11h22.51.781,Visual Search Experiment,2024.1.5,None,2024-10-10 11h23.01.959625 +0530
101,0,101,0,193.2624723,,193.2130929,10,193.2624723,193.2624723,0.0342487,194.276763,[0.4361979166666667],[0.24479166666666666],[1],[0],[0],1.0296437,243412,1,2024-10-10_11h22.51.781,Visual Search Experiment,2024.1.5,None,2024-10-10 11h23.01.959625 +0530
102,0,102,0,194.3068786,,194.281708,5,194.3068786,194.3068786,0.016388,195.7768642,[-0.3229166666666667],[-0.020833333333333332],[1],[0],[0],1.4791507,243412,1,2024-10-10_11h22.51.781,Visual Search Experiment,2024.1.5,None,2024-10-10 11h23.01.959625 +0530
103,0,103,0,195.8056402,,195.7800922,5,195.8056402,195.8056402,0.0155514,197.3101858,[0.07552083333333333],[0.390625],[1],[0],[0],1.5144879,243412,1,2024-10-10_11h22.51.781,Visual Search Experiment,2024.1.5,None,2024-10-10 11h23.01.959625 +0530
104,0,104,0,197.3589969,,197.313194,10,197.3589969,197.3589969,0.0330949,198.9610382,[-0.3268229166666667],[-0.14713541666666666],[1],[0],[0],1.6146029,243412,1,2024-10-10_11h22.51.781,Visual Search Experiment,2024.1.5,None,2024-10-10 11h23.01.959625 +0530
105,0,105,0,198.9890446,,198.9640512,5,198.9890446,198.9890446,0.0178829,200.5932229,[0.4427083333333333],[0.125],[1],[0],[0],1.6113529,243412,1,2024-10-10_11h22.51.781,Visual Search Experiment,2024.1.5,None,2024-10-10 11h23.01.959625 +0530
106,0,106,0,200.6198424,,200.5960908,5,200.6198424,200.6198424,0.0166358,201.8762596,[0.3658854166666667],[0.25390625],[1],[0],[0],1.2636861,243412,1,2024-10-10_11h22.51.781,Visual Search Experiment,2024.1.5,None,2024-10-10 11h23.01.959625 +0530
107,0,107,0,201.9058455,,201.881013,5,201.9058455,201.9058455,0.016866,203.2601303,[0.3229166666666667],[-0.11067708333333333],[1],[0],[0],1.3628116,243412,1,2024-10-10_11h22.51.781,Visual Search Experiment,2024.1.5,None,2024-10-10 11h23.01.959625 +0530
108,0,108,0,203.3103906,,203.2628433,10,203.3103906,203.3103906,0.036017,205.7427695,[-0.13541666666666666],[0.055989583333333336],[1],[0],[0],2.4439725,243412,1,2024-10-10_11h22.51.781,Visual Search Experiment,2024.1.5,None,2024-10-10 11h23.01.959625 +0530
109,0,109,0,205.7736571,,205.7457815,5,205.7736571,205.7736571,0.0189561,207.0760653,[-0.049479166666666664],[0.25390625],[1],[0],[0],1.3115084,243412,1,2024-10-10_11h22.51.781,Visual Search Experiment,2024.1.5,None,2024-10-10 11h23.01.959625 +0530
110,0,110,0,207.1290704,,207.0790035,10,207.1290704,207.1290704,0.0321326,208.5262132,[-0.22135416666666666],[0.03125],[1],[0],[0],1.4152105,243412,1,2024-10-10_11h22.51.781,Visual Search Experiment,2024.1.5,None,2024-10-10 11h23.01.959625 +0530
111,0,111,0,208.5800175,,208.530852,10,208.5800175,208.5800175,0.0331036,210.2926266,[-0.24479166666666666],[0.1640625],[1],[0],[0],1.7293503,243412,1,2024-10-10_11h22.51.781,Visual Search Experiment,2024.1.5,None,2024-10-10 11h23.01.959625 +0530
112,0,112,0,210.3433949,,210.2953308,10,210.3433949,210.3433949,0.0309399,213.0095362,[-0.4791666666666667],[0.3880208333333333],[1],[0],[0],2.6833435,243412,1,2024-10-10_11h22.51.781,Visual Search Experiment,2024.1.5,None,2024-10-10 11h23.01.959625 +0530
113,0,113,0,213.0383166,,213.0130868,5,213.0383166,213.0383166,0.0162842,214.7258484,[-0.453125],[0.2630208333333333],[1],[0],[0],1.6966235,243412,1,2024-10-10_11h22.51.781,Visual Search Experiment,2024.1.5,None,2024-10-10 11h23.01.959625 +0530
114,0,114,0,214.8089699,,214.7291858,10,214.8089699,214.8089699,0.0641027,217.7426397,[0.09244791666666667],[-0.45703125],[1],[0],[0],2.9492897,243412,1,2024-10-10_11h22.51.781,Visual Search Experiment,2024.1.5,None,2024-10-10 11h23.01.959625 +0530
115,0,115,0,217.8051805,,217.7453348,5,217.8051805,217.8051805,0.0496325,219.4261335,[-0.4739583333333333],[-0.12109375],[1],[0],[0],1.6311629,243412,1,2024-10-10_11h22.51.781,Visual Search Experiment,2024.1.5,None,2024-10-10 11h23.01.959625 +0530
116,0,116,0,219.4929937,,219.4303022,5,219.4929937,219.4929937,0.0534617,220.9593148,[-0.3802083333333333],[0.3997395833333333],[1],[0],[0],1.4756254,243412,1,2024-10-10_11h22.51.781,Visual Search Experiment,2024.1.5,None,2024-10-10 11h23.01.959625 +0530
117,0,117,0,221.0087512,,220.9620463,10,221.0087512,221.0087512,0.0319708,222.9092032,[-0.2734375],[0.07291666666666667],[1],[0],[0],1.9150791,243412,1,2024-10-10_11h22.51.781,Visual Search Experiment,2024.1.5,None,2024-10-10 11h23.01.959625 +0530
118,0,118,0,222.9656167,,222.9135088,10,222.9656167,222.9656167,0.0367858,225.0088543,[-0.028645833333333332],[-0.0390625],[1],[0],[0],2.0586945,243412,1,2024-10-10_11h22.51.781,Visual Search Experiment,2024.1.5,None,2024-10-10 11h23.01.959625 +0530
119,0,119,0,225.0688275,,225.0117031,5,225.0688275,225.0688275,0.0497941,226.6925866,[0.28125],[0.3098958333333333],[1],[0],[0],1.6311677,243412,1,2024-10-10_11h22.51.781,Visual Search Experiment,2024.1.5,None,2024-10-10 11h23.01.959625 +0530
120,0,120,0,226.7450553,,226.6952705,10,226.7450553,226.7450553,0.0364225,228.8754472,[-0.3046875],[-0.2708333333333333],[1],[0],[0],2.14374,243412,1,2024-10-10_11h22.51.781,Visual Search Experiment,2024.1.5,None,2024-10-10 11h23.01.959625 +0530
121,0,121,0,228.9301662,,228.8790077,10,228.9301662,228.9301662,0.0364307,231.941655,[-0.18880208333333334],[-0.44921875],[1],[0],[0],3.0264627,243412,1,2024-10-10_11h22.51.781,Visual Search Experiment,2024.1.5,None,2024-10-10 11h23.01.959625 +0530
122,0,122,0,231.9754034,,231.9444802,5,231.9754034,231.9754034,0.0223241,233.5415302,[0.21354166666666666],[-0.07942708333333333],[1],[0],[0],1.5748093,243412,1,2024-10-10_11h22.51.781,Visual Search Experiment,2024.1.5,None,2024-10-10 11h23.01.959625 +0530
123,0,123,0,233.593159,,233.5441964,10,233.593159,233.593159,0.0333766,234.7745627,[0.24739583333333334],[0.0],[1],[0],[0],1.1971134,243412,1,2024-10-10_11h22.51.781,Visual Search Experiment,2024.1.5,None,2024-10-10 11h23.01.959625 +0530
124,0,124,0,234.8254336,,234.7780228,10,234.8254336,234.8254336,0.0337863,236.5763845,[0.39453125],[0.041666666666666664],[1],[0],[0],1.7651067,243412,1,2024-10-10_11h22.51.781,Visual Search Experiment,2024.1.5,None,2024-10-10 11h23.01.959625 +0530
125,0,125,0,236.629591,,236.5796564,10,236.629591,236.629591,0.0347346,238.5427021,[0.013020833333333334],[-0.3776041666666667],[1],[0],[0],1.9282698,243412,1,2024-10-10_11h22.51.781,Visual Search Experiment,2024.1.5,None,2024-10-10 11h23.01.959625 +0530
126,0,126,0,238.5755015,,238.5454132,5,238.5755015,238.5755015,0.0214364,240.2916611,[-0.3736979166666667],[0.2981770833333333],[1],[0],[0],1.7249621,243412,1,2024-10-10_11h22.51.781,Visual Search Experiment,2024.1.5,None,2024-10-10 11h23.01.959625 +0530
127,0,127,0,240.3398012,,240.2946316,10,240.3398012,240.3398012,0.0327488,244.6580425,[-0.3541666666666667],[0.46875],[1],[0],[0],4.3306433,243412,1,2024-10-10_11h22.51.781,Visual Search Experiment,2024.1.5,None,2024-10-10 11h23.01.959625 +0530
128,0,128,0,244.7105556,,244.6610519,10,244.7105556,244.7105556,0.03385,249.5410682,[-0.006510416666666667],[0.26953125],[1],[0],[0],4.8461546,243412,1,2024-10-10_11h22.51.781,Visual Search Experiment,2024.1.5,None,2024-10-10 11h23.01.959625 +0530
129,0,129,0,249.601827,,249.5441003,5,249.601827,249.601827,0.0481702,251.1910125,[-0.4322916666666667],[-0.26953125],[1],[0],[0],1.5988059,243412,1,2024-10-10_11h22.51.781,Visual Search Experiment,2024.1.5,None,2024-10-10 11h23.01.959625 +0530
130,0,130,0,251.285279,,251.1963701,10,251.285279,251.285279,0.0725215,253.1573377,[0.1484375],[-0.11848958333333333],[1],[0],[0],1.8890217,243412,1,2024-10-10_11h22.51.781,Visual Search Experiment,2024.1.5,None,2024-10-10 11h23.01.959625 +0530
131,0,131,0,253.2120374,,253.1602075,10,253.2120374,253.2120374,0.0365846,257.1421102,[0.08333333333333333],[-0.4375],[1],[0],[0],3.9453017,243412,1,2024-10-10_11h22.51.781,Visual Search Experiment,2024.1.5,None,2024-10-10 11h23.01.959625 +0530
132,0,132,0,257.2001717,,257.1449356,10,257.2001717,257.2001717,0.0411642,259.023633,[-0.3997395833333333],[-0.16536458333333334],[1],[0],[0],1.8375831,243412,1,2024-10-10_11h22.51.781,Visual Search Experiment,2024.1.5,None,2024-10-10 11h23.01.959625 +0530
133,0,133,0,259.0759459,,259.0267434,10,259.0759459,259.0759459,0.032938,261.4735838,[-0.3424479166666667],[-0.4244791666666667],[1],[0],[0],2.414201,243412,1,2024-10-10_11h22.51.781,Visual Search Experiment,2024.1.5,None,2024-10-10 11h23.01.959625 +0530
134,0,134,0,261.5025458,,261.4763645,5,261.5025458,261.5025458,0.0176685,262.9903994,[-0.3658854166666667],[-0.3098958333333333],[1],[0],[0],1.4965251,243412,1,2024-10-10_11h22.51.781,Visual Search Experiment,2024.1.5,None,2024-10-10 11h23.01.959625 +0530
135,0,135,0,263.0182341,,262.993133,5,263.0182341,263.0182341,0.0176923,264.4074187,[-0.1875],[-0.30859375],[1],[0],[0],1.396694,243412,1,2024-10-10_11h22.51.781,Visual Search Experiment,2024.1.5,None,2024-10-10 11h23.01.959625 +0530
136,0,136,0,264.4666923,,264.4117977,10,264.4666923,264.4666923,0.038047,266.2901072,[0.3919270833333333],[0.30859375],[1],[0],[0],1.8403195,243412,1,2024-10-10_11h22.51.781,Visual Search Experiment,2024.1.5,None,2024-10-10 11h23.01.959625 +0530
137,0,137,0,266.3366839,,266.2928629,10,266.3366839,266.3366839,0.0309761,268.8730268,[-0.4453125],[-0.4622395833333333],[1],[0],[0],2.549286,243412,1,2024-10-10_11h22.51.781,Visual Search Experiment,2024.1.5,None,2024-10-10 11h23.01.959625 +0530
138,0,138,0,268.9310705,,268.8757678,5,268.9310705,268.9310705,0.0474865,270.490376,[0.3424479166666667],[0.22395833333333334],[1],[0],[0],1.5671179,243412,1,2024-10-10_11h22.51.781,Visual Search Experiment,2024.1.5,None,2024-10-10 11h23.01.959625 +0530
139,0,139,0,270.5259287,,270.4954292,5,270.5259287,270.5259287,0.0237111,271.7570398,[0.375],[0.14192708333333334],[1],[0],[0],1.2385701,243412,1,2024-10-10_11h22.51.781,Visual Search Experiment,2024.1.5,None,2024-10-10 11h23.01.959625 +0530
140,0,140,0,271.7828075,,271.7600268,5,271.7828075,271.7828075,0.0150734,272.8231651,[0.28125],[0.17057291666666666],[1],[0],[0],1.0482015,243412,1,2024-10-10_11h22.51.781,Visual Search Experiment,2024.1.5,None,2024-10-10 11h23.01.959625 +0530
141,0,141,0,272.8842005,,272.826158,5,272.8842005,272.8842005,0.0502,274.2226243,[-0.32421875],[-0.26953125],[1],[0],[0],1.346422,243412,1,2024-10-10_11h22.51.781,Visual Search Experiment,2024.1.5,None,2024-10-10 11h23.01.959625 +0530
142,0,142,0,274.2762218,,274.225444,10,274.2762218,274.2762218,0.0380013,275.9063091,[0.22395833333333334],[0.22395833333333334],[1],[0],[0],1.6429729,243412,1,2024-10-10_11h22.51.781,Visual Search Experiment,2024.1.5,None,2024-10-10 11h23.01.959625 +0530
143,0,143,0,275.997598,,275.9116237,10,275.997598,275.997598,0.0705838,277.4065396,[-0.34375],[-0.11588541666666667],[1],[0],[0],1.4246967,243412,1,2024-10-10_11h22.51.781,Visual Search Experiment,2024.1.5,None,2024-10-10 11h23.01.959625 +0530
144,0,144,0,277.4956183,,277.4098614,10,277.4956183,277.4956183,0.0728425,279.422976,[-0.3359375],[-0.2526041666666667],[1],[0],[0],1.9403468,243412,1,2024-10-10_11h22.51.781,Visual Search Experiment,2024.1.5,None,2024-10-10 11h23.01.959625 +0530
145,0,145,0,279.4577749,,279.4257789,5,279.4577749,279.4577749,0.0180989,280.9231084,[0.12109375],[-0.14973958333333334],[1],[0],[0],1.4794321,243412,1,2024-10-10_11h22.51.781,Visual Search Experiment,2024.1.5,None,2024-10-10 11h23.01.959625 +0530
146,0,146,0,280.9749474,,280.9260779,10,280.9749474,280.9749474,0.0350931,282.2056957,[0.08463541666666667],[-0.00390625],[1],[0],[0],1.244646,243412,1,2024-10-10_11h22.51.781,Visual Search Experiment,2024.1.5,None,2024-10-10 11h23.01.959625 +0530
147,0,147,0,282.2879975,,282.2093995,10,282.2879975,282.2879975,0.0332626,284.9722359,[0.4908854166666667],[0.14713541666666666],[1],[0],[0],2.729712,243412,1,2024-10-10_11h22.51.781,Visual Search Experiment,2024.1.5,None,2024-10-10 11h23.01.959625 +0530
148,0,148,0,285.0022237,,284.9752867,5,285.0022237,285.0022237,0.0177834,286.3891694,[0.3450520833333333],[-0.18229166666666666],[1],[0],[0],1.3963332,243412,1,2024-10-10_11h22.51.781,Visual Search Experiment,2024.1.5,None,2024-10-10 11h23.01.959625 +0530
149,0,149,0,286.4740976,,286.3919319,10,286.4740976,286.4740976,0.0679946,288.6053912,[-0.4192708333333333],[-0.3958333333333333],[1],[0],[0],2.1456374,243412,1,2024-10-10_11h22.51.781,Visual Search Experiment,2024.1.5,None,2024-10-10 11h23.01.959625 +0530
150,0,150,0,288.6365752,,288.608681,5,288.6365752,288.6365752,0.0209211,289.9553329,[0.037760416666666664],[0.11328125],[1],[0],[0],1.3259056,243412,1,2024-10-10_11h22.51.781,Visual Search Experiment,2024.1.5,None,2024-10-10 11h23.01.959625 +0530
151,0,151,0,290.0374752,,289.959514,10,290.0374752,290.0374752,0.0647694,291.8052925,[0.0859375],[-0.3671875],[1],[0],[0],1.7818034,243412,1,2024-10-10_11h22.51.781,Visual Search Experiment,2024.1.5,None,2024-10-10 11h23.01.959625 +0530
152,0,152,0,291.8929977,,291.8089839,10,291.8929977,291.8929977,0.0677433,293.3056455,[-0.2708333333333333],[-0.30078125],[1],[0],[0],1.4291739,243412,1,2024-10-10_11h22.51.781,Visual Search Experiment,2024.1.5,None,2024-10-10 11h23.01.959625 +0530
153,0,153,0,293.3634123,,293.3103529,10,293.3634123,293.3634123,0.0385994,294.871796,[0.05078125],[-0.03125],[1],[0],[0],1.5235705,243412,1,2024-10-10_11h22.51.781,Visual Search Experiment,2024.1.5,None,2024-10-10 11h23.01.959625 +0530
154,0,154,0,294.9251404,,294.874488,10,294.9251404,294.9251404,0.0372088,296.2887515,[-0.3528645833333333],[-0.2578125],[1],[0],[0],1.3771134,243412,1,2024-10-10_11h22.51.781,Visual Search Experiment,2024.1.5,None,2024-10-10 11h23.01.959625 +0530
155,0,155,0,296.3395303,,296.2916478,10,296.3395303,296.3395303,0.0332263,298.4725548,[-0.013020833333333334],[-0.4518229166666667],[1],[0],[0],2.1477412,243412,1,2024-10-10_11h22.51.781,Visual Search Experiment,2024.1.5,None,2024-10-10 11h23.01.959625 +0530
156,0,156,0,298.5027037,,298.4752691,5,298.5027037,298.5027037,0.0174087,301.0718735,[-0.3828125],[0.49609375],[1],[0],[0],2.5793318,243412,1,2024-10-10_11h22.51.781,Visual Search Experiment,2024.1.5,None,2024-10-10 11h23.01.959625 +0530
157,0,157,0,301.1275596,,301.0748435,10,301.1275596,301.1275596,0.0393788,303.0387482,[0.0625],[0.3020833333333333],[1],[0],[0],1.9244477,243412,1,2024-10-10_11h22.51.781,Visual Search Experiment,2024.1.5,None,2024-10-10 11h23.01.959625 +0530
158,0,158,0,303.1269458,,303.0427836,10,303.1269458,303.1269458,0.0701764,304.755273,[-0.3763020833333333],[-0.16015625],[1],[0],[0],1.6424437,243412,1,2024-10-10_11h22.51.781,Visual Search Experiment,2024.1.5,None,2024-10-10 11h23.01.959625 +0530
159,0,159,0,304.8434466,,304.7588289,10,304.8434466,304.8434466,0.0690243,306.5217403,[-0.22265625],[0.3125],[1],[0],[0],1.6938819,243412,1,2024-10-10_11h22.51.781,Visual Search Experiment,2024.1.5,None,2024-10-10 11h23.01.959625 +0530
160,0,160,0,306.6007976,,306.524399,10,306.6007976,306.6007976,0.0636157,308.3211104,[-0.25390625],[-0.296875],[1],[0],[0],1.7331614,243412,1,2024-10-10_11h22.51.781,Visual Search Experiment,2024.1.5,None,2024-10-10 11h23.01.959625 +0530
161,0,161,0,308.3713155,,308.3244201,10,308.3713155,308.3713155,0.0352292,310.3546162,[0.3567708333333333],[-0.04296875],[1],[0],[0],1.9954062,243412,1,2024-10-10_11h22.51.781,Visual Search Experiment,2024.1.5,None,2024-10-10 11h23.01.959625 +0530
162,0,162,0,310.38528,,310.3579576,5,310.38528,310.38528,0.0191785,311.9214524,[0.2877604166666667],[-0.24869791666666666],[1],[0],[0],1.5447253,243412,1,2024-10-10_11h22.51.781,Visual Search Experiment,2024.1.5,None,2024-10-10 11h23.01.959625 +0530
163,0,163,0,311.9724786,,311.9241937,10,311.9724786,311.9724786,0.0362708,313.4041782,[0.22526041666666666],[-0.014322916666666666],[1],[0],[0],1.4438599,243412,1,2024-10-10_11h22.51.781,Visual Search Experiment,2024.1.5,None,2024-10-10 11h23.01.959625 +0530
164,0,164,0,313.4893144,,313.4074778,10,313.4893144,313.4893144,0.0662155,314.839178,[0.08463541666666667],[-0.3528645833333333],[1],[0],[0],1.3658161,243412,1,2024-10-10_11h22.51.781,Visual Search Experiment,2024.1.5,None,2024-10-10 11h23.01.959625 +0530
165,0,165,0,314.8940808,,314.8423262,10,314.8940808,314.8940808,0.0400709,316.2546644,[0.09114583333333333],[-0.09244791666666667],[1],[0],[0],1.3723978,243412,1,2024-10-10_11h22.51.781,Visual Search Experiment,2024.1.5,None,2024-10-10 11h23.01.959625 +0530
166,0,166,0,316.3053745,,316.258101,10,316.3053745,316.3053745,0.0348724,318.8206838,[0.48828125],[-0.4466145833333333],[1],[0],[0],2.5282204,243412,1,2024-10-10_11h22.51.781,Visual Search Experiment,2024.1.5,None,2024-10-10 11h23.01.959625 +0530
167,0,167,0,318.8740856,,318.8235415,10,318.8740856,318.8740856,0.0378372,320.820531,[0.4244791666666667],[0.3216145833333333],[1],[0],[0],1.959312,243412,1,2024-10-10_11h22.51.781,Visual Search Experiment,2024.1.5,None,2024-10-10 11h23.01.959625 +0530
168,0,168,0,320.9120426,,320.8232653,10,320.9120426,320.9120426,0.031984,322.5705778,[-0.2630208333333333],[-0.4296875],[1],[0],[0],1.7155019,243412,1,2024-10-10_11h22.51.781,Visual Search Experiment,2024.1.5,None,2024-10-10 11h23.01.959625 +0530
169,0,169,0,322.6133815,,322.5733498,5,322.6133815,322.6133815,0.0285906,324.6037013,[-0.23697916666666666],[0.4505208333333333],[1],[0],[0],2.0018165,243412,1,2024-10-10_11h22.51.781,Visual Search Experiment,2024.1.5,None,2024-10-10 11h23.01.959625 +0530
170,0,170,0,324.684826,,324.606775,10,324.684826,324.684826,0.0661903,326.4802971,[0.07552083333333333],[-0.24739583333333334],[1],[0],[0],1.8076719,243412,1,2024-10-10_11h22.51.781,Visual Search Experiment,2024.1.5,None,2024-10-10 11h23.01.959625 +0530
171,0,171,0,326.5294236,,326.4831809,10,326.5294236,326.5294236,0.034753,327.9037259,[0.34765625],[0.2682291666666667],[1],[0],[0],1.3859565,243412,1,2024-10-10_11h22.51.781,Visual Search Experiment,2024.1.5,None,2024-10-10 11h23.01.959625 +0530
172,0,172,0,327.9637001,,327.9067254,5,327.9637001,327.9637001,0.0488326,329.4370734,[0.048177083333333336],[0.12239583333333333],[1],[0],[0],1.4818555,243412,1,2024-10-10_11h22.51.781,Visual Search Experiment,2024.1.5,None,2024-10-10 11h23.01.959625 +0530
173,0,173,0,329.518505,,329.4403308,10,329.518505,329.518505,0.0667307,331.2375693,[0.5],[0.4388020833333333],[1],[0],[0],1.7303372,243412,1,2024-10-10_11h22.51.781,Visual Search Experiment,2024.1.5,None,2024-10-10 11h23.01.959625 +0530
174,0,174,0,331.2912421,,331.2402679,10,331.2912421,331.2912421,0.0349459,332.6202737,[-0.018229166666666668],[0.2513020833333333],[1],[0],[0],1.3452216,243412,1,2024-10-10_11h22.51.781,Visual Search Experiment,2024.1.5,None,2024-10-10 11h23.01.959625 +0530
175,0,175,0,332.6529338,,332.6230211,5,332.6529338,332.6529338,0.0199469,334.3705252,[0.12760416666666666],[-0.19791666666666666],[1],[0],[0],1.7276579,243412,1,2024-10-10_11h22.51.781,Visual Search Experiment,2024.1.5,None,2024-10-10 11h23.01.959625 +0530
176,0,176,0,334.4550159,,334.373253,10,334.4550159,334.4550159,0.0689269,343.7360307,[0.48046875],[0.013020833333333334],[1],[0],[0],9.2939648,243412,1,2024-10-10_11h22.51.781,Visual Search Experiment,2024.1.5,None,2024-10-10 11h23.01.959625 +0530
177,0,177,0,343.7864909,,343.7395926,10,343.7864909,343.7864909,0.0315452,344.9694377,[0.26953125],[-0.3268229166666667],[1],[0],[0],1.1983722,243412,1,2024-10-10_11h22.51.781,Visual Search Experiment,2024.1.5,None,2024-10-10 11h23.01.959625 +0530
178,0,178,0,344.997195,,344.9722055,5,344.997195,344.997195,0.0164529,346.5694052,[-0.3059895833333333],[-0.29296875],[1],[0],[0],1.5808026,243412,1,2024-10-10_11h22.51.781,Visual Search Experiment,2024.1.5,None,2024-10-10 11h23.01.959625 +0530
179,0,179,0,346.6245914,,346.57476,10,346.6245914,346.6245914,0.0368464,348.4024017,[-0.049479166666666664],[-0.07421875],[1],[0],[0],1.7914911,243412,1,2024-10-10_11h22.51.781,Visual Search Experiment,2024.1.5,None,2024-10-10 11h23.01.959625 +0530
180,0,180,0,348.4533771,,348.4051685,10,348.4533771,348.4533771,0.0339721,349.8362227,[0.16796875],[0.14322916666666666],[1],[0],[0],1.3971217,243412,1,2024-10-10_11h22.51.781,Visual Search Experiment,2024.1.5,None,2024-10-10 11h23.01.959625 +0530
181,0,181,0,349.8884401,,349.8394858,10,349.8884401,349.8884401,0.0357739,351.2360565,[0.2864583333333333],[0.28125],[1],[0],[0],1.3608892,243412,1,2024-10-10_11h22.51.781,Visual Search Experiment,2024.1.5,None,2024-10-10 11h23.01.959625 +0530
182,0,182,0,351.2890029,,351.2393877,10,351.2890029,351.2890029,0.0350674,353.4023301,[-0.34765625],[-0.4244791666666667],[1],[0],[0],2.1279783,243412,1,2024-10-10_11h22.51.781,Visual Search Experiment,2024.1.5,None,2024-10-10 11h23.01.959625 +0530
183,0,183,0,353.4546417,,353.4050128,10,353.4546417,353.4546417,0.0350686,354.9025842,[-0.07421875],[-0.3971354166666667],[1],[0],[0],1.4626333,243412,1,2024-10-10_11h22.51.781,Visual Search Experiment,2024.1.5,None,2024-10-10 11h23.01.959625 +0530
184,0,184,0,354.9563886,,354.9054436,10,354.9563886,354.9563886,0.0320541,356.6354814,[0.39453125],[0.040364583333333336],[1],[0],[0],1.6981994,243412,1,2024-10-10_11h22.51.781,Visual Search Experiment,2024.1.5,None,2024-10-10 11h23.01.959625 +0530
185,0,185,0,356.7195915,,356.6393094,10,356.7195915,356.7195915,0.0655974,358.136003,[-0.27734375],[0.07942708333333333],[1],[0],[0],1.4311835,243412,1,2024-10-10_11h22.51.781,Visual Search Experiment,2024.1.5,None,2024-10-10 11h23.01.959625 +0530
186,0,186,0,358.1865163,,358.1390769,10,358.1865163,358.1865163,0.0334396,360.585353,[0.1875],[0.4388020833333333],[1],[0],[0],2.4129542,243412,1,2024-10-10_11h22.51.781,Visual Search Experiment,2024.1.5,None,2024-10-10 11h23.01.959625 +0530
187,0,187,0,360.646296,,360.5890828,5,360.646296,360.646296,0.0481267,362.3022368,[-0.13932291666666666],[-0.375],[1],[0],[0],1.6651646,243412,1,2024-10-10_11h22.51.781,Visual Search Experiment,2024.1.5,None,2024-10-10 11h23.01.959625 +0530
188,0,188,0,362.3622692,,362.3049012,5,362.3622692,362.3622692,0.0490845,363.8689684,[-0.3346354166666667],[0.10286458333333333],[1],[0],[0],1.5150635,243412,1,2024-10-10_11h22.51.781,Visual Search Experiment,2024.1.5,None,2024-10-10 11h23.01.959625 +0530
189,0,189,0,363.925532,,363.8717086,10,363.925532,363.925532,0.0399001,365.8015193,[0.07942708333333333],[-0.2955729166666667],[1],[0],[0],1.8900532,243412,1,2024-10-10_11h22.51.781,Visual Search Experiment,2024.1.5,None,2024-10-10 11h23.01.959625 +0530
190,0,190,0,365.885175,,365.8042672,10,365.885175,365.885175,0.0656537,367.5518282,[0.2825520833333333],[0.19791666666666666],[1],[0],[0],1.6819695,243412,1,2024-10-10_11h22.51.781,Visual Search Experiment,2024.1.5,None,2024-10-10 11h23.01.959625 +0530
191,0,191,0,367.6036451,,367.5545333,10,367.6036451,367.6036451,0.0336632,369.0192044,[0.4791666666666667],[0.11328125],[1],[0],[0],1.4310231,243412,1,2024-10-10_11h22.51.781,Visual Search Experiment,2024.1.5,None,2024-10-10 11h23.01.959625 +0530
192,0,192,0,369.071818,,369.0219748,10,369.071818,369.071818,0.0357528,370.935358,[-0.040364583333333336],[-0.39453125],[1],[0],[0],1.8777541,243412,1,2024-10-10_11h22.51.781,Visual Search Experiment,2024.1.5,None,2024-10-10 11h23.01.959625 +0530
193,0,193,0,370.997601,,370.9390811,5,370.997601,370.997601,0.0491333,372.618949,[-0.4544270833333333],[-0.4596354166666667],[1],[0],[0],1.6307989,243412,1,2024-10-10_11h22.51.781,Visual Search Experiment,2024.1.5,None,2024-10-10 11h23.01.959625 +0530
194,0,194,0,372.6463152,,372.6217157,5,372.6463152,372.6463152,0.0157306,373.9849552,[-0.34375],[-0.03125],[1],[0],[0],1.3476623,243412,1,2024-10-10_11h22.51.781,Visual Search Experiment,2024.1.5,None,2024-10-10 11h23.01.959625 +0530
195,0,195,0,374.0134661,,373.9885074,5,374.0134661,374.0134661,0.0159213,375.2182322,[-0.10416666666666667],[-0.044270833333333336],[1],[0],[0],1.213897,243412,1,2024-10-10_11h22.51.781,Visual Search Experiment,2024.1.5,None,2024-10-10 11h23.01.959625 +0530
196,0,196,0,375.2714832,,375.2209892,10,375.2714832,375.2714832,0.0350361,376.9013681,[-0.08854166666666667],[0.4153645833333333],[1],[0],[0],1.6454608,243412,1,2024-10-10_11h22.51.781,Visual Search Experiment,2024.1.5,None,2024-10-10 11h23.01.959625 +0530
197,0,197,0,376.9863476,,376.9041282,10,376.9863476,376.9863476,0.067753,379.2013082,[0.2916666666666667],[-0.24609375],[1],[0],[0],2.2294396,243412,1,2024-10-10_11h22.51.781,Visual Search Experiment,2024.1.5,None,2024-10-10 11h23.01.959625 +0530
198,0,198,0,379.2509337,,379.2041871,10,379.2509337,379.2509337,0.0311196,382.5525859,[0.2916666666666667],[-0.4830729166666667],[1],[0],[0],3.3172155,243412,1,2024-10-10_11h22.51.781,Visual Search Experiment,2024.1.5,None,2024-10-10 11h23.01.959625 +0530
199,0,199,0,382.6477424,,382.5580117,10,382.6477424,382.6477424,0.0738148,384.6186413,[0.07291666666666667],[-0.4440104166666667],[1],[0],[0],1.9874851,243412,1,2024-10-10_11h22.51.781,Visual Search Experiment,2024.1.5,None,2024-10-10 11h23.01.959625 +0530
