trials.thisRepN,trials.thisTrialN,trials.thisN,trials.thisIndex,thisRow.t,notes,trial.started,num_distr,fixation.started,Target.started,mouse.started,trial.stopped,mouse.x,mouse.y,mouse.leftButton,mouse.midButton,mouse.rightButton,mouse.time,,,session,date,expName,psychopyVersion,frameRate,expStart
0,0,0,0,0.0367189,,0.0067689,5,0.0367189,0.0367189,0.028042,1.8159446,[0.3453703703703704],[0.23425925925925925],[1],[0],[0],,1.7872295,,1,2024-10-08_13h04.47.628,VisualSearchExperiment,2024.1.5,None,2024-10-08 13h04.56.951059 +0530
1,0,1,0,1.8433735,,1.8208548,5,1.8433735,1.8433735,0.0162662,3.3954091,[0.000925925925925926],[0.42314814814814816],[1],[0],[0],,1.5585206,,1,2024-10-08_13h04.47.628,VisualSearchExperiment,2024.1.5,None,2024-10-08 13h04.56.951059 +0530
2,0,2,0,3.4463568,,3.3982606,10,3.4463568,3.4463568,0.0343695,5.3130039,[-0.041666666666666664],[0.362962962962963],[1],[0],[0],,1.8806004,,1,2024-10-08_13h04.47.628,VisualSearchExperiment,2024.1.5,None,2024-10-08 13h04.56.951059 +0530
3,0,3,0,5.3627687,,5.3158081,10,5.3627687,5.3627687,0.0323008,7.3460729,[-0.4101851851851852],[0.10555555555555556],[1],[0],[0],,1.9981074,,1,2024-10-08_13h04.47.628,VisualSearchExperiment,2024.1.5,None,2024-10-08 13h04.56.951059 +0530
4,0,4,0,7.3975796,,7.349022,10,7.3975796,7.3975796,0.0346163,10.1954918,[0.3416666666666667],[0.42592592592592593],[1],[0],[0],,2.8122822,,1,2024-10-08_13h04.47.628,VisualSearchExperiment,2024.1.5,None,2024-10-08 13h04.56.951059 +0530
5,0,5,0,10.2457102,,10.1983372,10,10.2457102,10.2457102,0.0365333,11.9795585,[-0.2064814814814815],[0.3314814814814815],[1],[0],[0],,1.7447837,,1,2024-10-08_13h04.47.628,VisualSearchExperiment,2024.1.5,None,2024-10-08 13h04.56.951059 +0530
6,0,6,0,12.0092511,,11.9835189,5,12.0092511,12.0092511,0.0198331,14.329127,[0.024074074074074074],[-0.42962962962962964],[1],[0],[0],,2.3262455,,1,2024-10-08_13h04.47.628,VisualSearchExperiment,2024.1.5,None,2024-10-08 13h04.56.951059 +0530
7,0,7,0,14.3821253,,14.3321054,10,14.3821253,14.3821253,0.0391887,16.8594717,[-0.2740740740740741],[-0.4027777777777778],[1],[0],[0],,2.4883192,,1,2024-10-08_13h04.47.628,VisualSearchExperiment,2024.1.5,None,2024-10-08 13h04.56.951059 +0530
8,0,8,0,16.8838019,,16.8628618,5,16.8838019,16.8838019,0.0146446,19.6626279,[-0.2796296296296296],[-0.36018518518518516],[1],[0],[0],,2.7853523,,1,2024-10-08_13h04.47.628,VisualSearchExperiment,2024.1.5,None,2024-10-08 13h04.56.951059 +0530
9,0,9,0,19.7089196,,19.6653949,10,19.7089196,19.7089196,0.033424,21.3293356,[-0.08333333333333333],[0.3],[1],[0],[0],,1.6306449,,1,2024-10-08_13h04.47.628,VisualSearchExperiment,2024.1.5,None,2024-10-08 13h04.56.951059 +0530
10,0,10,0,21.3758561,,21.3332713,10,21.3758561,21.3758561,0.0308894,23.6794909,[-0.3962962962962963],[-0.15925925925925927],[1],[0],[0],,2.3156493,,1,2024-10-08_13h04.47.628,VisualSearchExperiment,2024.1.5,None,2024-10-08 13h04.56.951059 +0530
11,0,11,0,23.7254184,,23.682911,10,23.7254184,23.7254184,0.0325496,26.0125166,[0.09722222222222222],[-0.07037037037037037],[1],[0],[0],,2.2974342,,1,2024-10-08_13h04.47.628,VisualSearchExperiment,2024.1.5,None,2024-10-08 13h04.56.951059 +0530
12,0,12,0,26.0395167,,26.0153658,5,26.0395167,26.0395167,0.0168234,27.8127569,[0.13518518518518519],[-0.3712962962962963],[1],[0],[0],,1.7807916,,1,2024-10-08_13h04.47.628,VisualSearchExperiment,2024.1.5,None,2024-10-08 13h04.56.951059 +0530
13,0,13,0,27.8452493,,27.815696,5,27.8452493,27.8452493,0.021649,29.7289961,[0.39444444444444443],[0.03518518518518519],[1],[0],[0],,1.8919185,,1,2024-10-08_13h04.47.628,VisualSearchExperiment,2024.1.5,None,2024-10-08 13h04.56.951059 +0530
14,0,14,0,29.776589,,29.7328197,10,29.776589,29.776589,0.0314925,31.9456462,[-0.30648148148148147],[0.07777777777777778],[1],[0],[0],,2.1817357,,1,2024-10-08_13h04.47.628,VisualSearchExperiment,2024.1.5,None,2024-10-08 13h04.56.951059 +0530
15,0,15,0,31.9768867,,31.9506594,5,31.9768867,31.9768867,0.0198671,33.7135503,[0.1175925925925926],[-0.30092592592592593],[1],[0],[0],,1.7436365,,1,2024-10-08_13h04.47.628,VisualSearchExperiment,2024.1.5,None,2024-10-08 13h04.56.951059 +0530
16,0,16,0,33.7419726,,33.71754,5,33.7419726,33.7419726,0.018145,35.5460302,[-0.412962962962963],[0.13425925925925927],[1],[0],[0],,1.810535,,1,2024-10-08_13h04.47.628,VisualSearchExperiment,2024.1.5,None,2024-10-08 13h04.56.951059 +0530
17,0,17,0,35.5729525,,35.5488373,5,35.5729525,35.5729525,0.0174542,37.6461612,[-0.21203703703703702],[-0.1675925925925926],[1],[0],[0],,2.0800074,,1,2024-10-08_13h04.47.628,VisualSearchExperiment,2024.1.5,None,2024-10-08 13h04.56.951059 +0530
18,0,18,0,37.6954146,,37.6491695,10,37.6954146,37.6954146,0.0345347,40.2629108,[-0.14166666666666666],[-0.3277777777777778],[1],[0],[0],,2.5793821,,1,2024-10-08_13h04.47.628,VisualSearchExperiment,2024.1.5,None,2024-10-08 13h04.56.951059 +0530
19,0,19,0,40.2892793,,40.2657374,5,40.2892793,40.2892793,0.0160164,42.2463269,[0.17222222222222222],[0.3194444444444444],[1],[0],[0],,1.9647254,,1,2024-10-08_13h04.47.628,VisualSearchExperiment,2024.1.5,None,2024-10-08 13h04.56.951059 +0530
20,0,20,0,42.2710036,,42.2491609,5,42.2710036,42.2710036,0.0152122,43.7127125,[0.058333333333333334],[0.2898148148148148],[1],[0],[0],,1.4484998,,1,2024-10-08_13h04.47.628,VisualSearchExperiment,2024.1.5,None,2024-10-08 13h04.56.951059 +0530
21,0,21,0,43.7378996,,43.7155438,5,43.7378996,43.7378996,0.0155052,46.3476667,[0.30925925925925923],[-0.44351851851851853],[1],[0],[0],,2.6165841,,1,2024-10-08_13h04.47.628,VisualSearchExperiment,2024.1.5,None,2024-10-08 13h04.56.951059 +0530
22,0,22,0,46.3832828,,46.3522655,5,46.3832828,46.3832828,0.0220188,49.2296598,[-0.4787037037037037],[-0.018518518518518517],[1],[0],[0],,2.855851,,1,2024-10-08_13h04.47.628,VisualSearchExperiment,2024.1.5,None,2024-10-08 13h04.56.951059 +0530
23,0,23,0,49.2559369,,49.2325183,5,49.2559369,49.2559369,0.0164295,51.1303985,[0.4425925925925926],[0.1962962962962963],[1],[0],[0],,1.8816253,,1,2024-10-08_13h04.47.628,VisualSearchExperiment,2024.1.5,None,2024-10-08 13h04.56.951059 +0530
24,0,24,0,51.1592808,,51.1331976,5,51.1592808,51.1592808,0.0189133,53.0797869,[0.008333333333333333],[-0.40925925925925927],[1],[0],[0],,1.9277229,,1,2024-10-08_13h04.47.628,VisualSearchExperiment,2024.1.5,None,2024-10-08 13h04.56.951059 +0530
25,0,25,0,53.1309322,,53.0844992,10,53.1309322,53.1309322,0.0340128,56.4291552,[0.24444444444444444],[0.41203703703703703],[1],[0],[0],,3.3110748,,1,2024-10-08_13h04.47.628,VisualSearchExperiment,2024.1.5,None,2024-10-08 13h04.56.951059 +0530
26,0,26,0,56.4562606,,56.4320668,5,56.4562606,56.4562606,0.01724,58.0631715,[-0.06574074074074074],[0.13055555555555556],[1],[0],[0],,1.6140101,,1,2024-10-08_13h04.47.628,VisualSearchExperiment,2024.1.5,None,2024-10-08 13h04.56.951059 +0530
27,0,27,0,58.1095748,,58.0669255,10,58.1095748,58.1095748,0.0308216,59.8973168,[-0.23796296296296296],[0.15925925925925927],[1],[0],[0],,1.7996408,,1,2024-10-08_13h04.47.628,VisualSearchExperiment,2024.1.5,None,2024-10-08 13h04.56.951059 +0530
28,0,28,0,59.9485323,,59.9003059,10,59.9485323,59.9485323,0.0345681,62.3962747,[0.23055555555555557],[-0.30462962962962964],[1],[0],[0],,2.4615601,,1,2024-10-08_13h04.47.628,VisualSearchExperiment,2024.1.5,None,2024-10-08 13h04.56.951059 +0530
29,0,29,0,62.4440569,,62.3991031,10,62.4440569,62.4440569,0.0336902,64.3967013,[-0.17314814814814813],[0.09166666666666666],[1],[0],[0],,1.9641496,,1,2024-10-08_13h04.47.628,VisualSearchExperiment,2024.1.5,None,2024-10-08 13h04.56.951059 +0530
30,0,30,0,64.4423836,,64.3995145,10,64.4423836,64.4423836,0.0303819,67.6797668,[0.4324074074074074],[-0.3814814814814815],[1],[0],[0],,3.2500346,,1,2024-10-08_13h04.47.628,VisualSearchExperiment,2024.1.5,None,2024-10-08 13h04.56.951059 +0530
31,0,31,0,67.7240207,,67.6827522,10,67.7240207,67.7240207,0.0307973,72.8295433,[0.3416666666666667],[0.42592592592592593],[1],[0],[0],,5.1162462,,1,2024-10-08_13h04.47.628,VisualSearchExperiment,2024.1.5,None,2024-10-08 13h04.56.951059 +0530
32,0,32,0,72.8555952,,72.832409,5,72.8555952,72.8555952,0.0163887,74.4134014,[0.12407407407407407],[0.4111111111111111],[1],[0],[0],,1.5647803,,1,2024-10-08_13h04.47.628,VisualSearchExperiment,2024.1.5,None,2024-10-08 13h04.56.951059 +0530
33,0,33,0,74.4395858,,74.4162399,5,74.4395858,74.4395858,0.0168523,76.4637014,[0.09814814814814815],[-0.1787037037037037],[1],[0],[0],,2.030792,,1,2024-10-08_13h04.47.628,VisualSearchExperiment,2024.1.5,None,2024-10-08 13h04.56.951059 +0530
34,0,34,0,76.5545175,,76.466549,10,76.5545175,76.5545175,0.0747285,78.3470362,[0.16666666666666666],[0.0712962962962963],[1],[0],[0],,1.8058749,,1,2024-10-08_13h04.47.628,VisualSearchExperiment,2024.1.5,None,2024-10-08 13h04.56.951059 +0530
35,0,35,0,78.4028957,,78.350762,10,78.4028957,78.4028957,0.0408076,80.1803244,[-0.35185185185185186],[0.2759259259259259],[1],[0],[0],,1.789152,,1,2024-10-08_13h04.47.628,VisualSearchExperiment,2024.1.5,None,2024-10-08 13h04.56.951059 +0530
36,0,36,0,80.2097776,,80.1831895,5,80.2097776,80.2097776,0.0196731,82.7466747,[0.4824074074074074],[0.1787037037037037],[1],[0],[0],,2.5439868,,1,2024-10-08_13h04.47.628,VisualSearchExperiment,2024.1.5,None,2024-10-08 13h04.56.951059 +0530
37,0,37,0,82.7778293,,82.7495157,5,82.7778293,82.7778293,0.0202071,86.7471477,[-0.34814814814814815],[-0.13240740740740742],[1],[0],[0],,3.9775422,,1,2024-10-08_13h04.47.628,VisualSearchExperiment,2024.1.5,None,2024-10-08 13h04.56.951059 +0530
38,0,38,0,86.7841468,,86.7517036,5,86.7841468,86.7841468,0.0228757,89.1300026,[0.4842592592592593],[0.34629629629629627],[1],[0],[0],,2.3560487,,1,2024-10-08_13h04.47.628,VisualSearchExperiment,2024.1.5,None,2024-10-08 13h04.56.951059 +0530
39,0,39,0,89.1780858,,89.1328458,10,89.1780858,89.1780858,0.0345084,91.3133361,[-0.18518518518518517],[-0.10462962962962963],[1],[0],[0],,2.1462139,,1,2024-10-08_13h04.47.628,VisualSearchExperiment,2024.1.5,None,2024-10-08 13h04.56.951059 +0530
40,0,40,0,91.3677047,,91.3161908,10,91.3677047,91.3677047,0.0341507,94.5301779,[-0.3925925925925926],[0.3453703703703704],[1],[0],[0],,3.1799137,,1,2024-10-08_13h04.47.628,VisualSearchExperiment,2024.1.5,None,2024-10-08 13h04.56.951059 +0530
41,0,41,0,94.5783483,,94.5335386,10,94.5783483,94.5783483,0.034293,97.06423,[-0.24537037037037038],[0.38981481481481484],[1],[0],[0],,2.4965769,,1,2024-10-08_13h04.47.628,VisualSearchExperiment,2024.1.5,None,2024-10-08 13h04.56.951059 +0530
42,0,42,0,97.1127705,,97.0671083,10,97.1127705,97.1127705,0.0331775,100.7808474,[0.35833333333333334],[-0.44722222222222224],[1],[0],[0],,3.6806832,,1,2024-10-08_13h04.47.628,VisualSearchExperiment,2024.1.5,None,2024-10-08 13h04.56.951059 +0530
43,0,43,0,100.8370097,,100.7836117,10,100.8370097,100.8370097,0.0369479,102.6801287,[0.3101851851851852],[-0.32314814814814813],[1],[0],[0],,1.8597209,,1,2024-10-08_13h04.47.628,VisualSearchExperiment,2024.1.5,None,2024-10-08 13h04.56.951059 +0530
44,0,44,0,102.7351426,,102.6832173,10,102.7351426,102.7351426,0.0362954,105.0473731,[0.1537037037037037],[-0.10833333333333334],[1],[0],[0],,2.3278877,,1,2024-10-08_13h04.47.628,VisualSearchExperiment,2024.1.5,None,2024-10-08 13h04.56.951059 +0530
45,0,45,0,105.0952129,,105.0510722,10,105.0952129,105.0952129,0.0334102,107.5800219,[0.27870370370370373],[0.4148148148148148],[1],[0],[0],,2.4958121,,1,2024-10-08_13h04.47.628,VisualSearchExperiment,2024.1.5,None,2024-10-08 13h04.56.951059 +0530
46,0,46,0,107.6050087,,107.5828712,5,107.6050087,107.6050087,0.0153311,110.8971617,[-0.18703703703703703],[-0.46944444444444444],[1],[0],[0],,3.2990297,,1,2024-10-08_13h04.47.628,VisualSearchExperiment,2024.1.5,None,2024-10-08 13h04.56.951059 +0530
47,0,47,0,110.9508138,,110.8999825,10,110.9508138,110.9508138,0.0365198,115.0973182,[0.3101851851851852],[-0.03333333333333333],[1],[0],[0],,4.1608183,,1,2024-10-08_13h04.47.628,VisualSearchExperiment,2024.1.5,None,2024-10-08 13h04.56.951059 +0530
48,0,48,0,115.1292533,,115.1004685,5,115.1292533,115.1292533,0.018801,117.4974976,[0.37962962962962965],[0.15648148148148147],[1],[0],[0],,2.3783615,,1,2024-10-08_13h04.47.628,VisualSearchExperiment,2024.1.5,None,2024-10-08 13h04.56.951059 +0530
49,0,49,0,117.5447283,,117.5002626,10,117.5447283,117.5447283,0.0327428,119.1640715,[0.4166666666666667],[0.20092592592592592],[1],[0],[0],,1.6312677,,1,2024-10-08_13h04.47.628,VisualSearchExperiment,2024.1.5,None,2024-10-08 13h04.56.951059 +0530
50,0,50,0,119.1918668,,119.1671205,5,119.1918668,119.1918668,0.0178868,120.8971208,[-0.003703703703703704],[-0.13425925925925927],[1],[0],[0],,1.71247,,1,2024-10-08_13h04.47.628,VisualSearchExperiment,2024.1.5,None,2024-10-08 13h04.56.951059 +0530
51,0,51,0,120.9333127,,120.9027342,5,120.9333127,120.9333127,0.0232859,122.6970534,[-0.29259259259259257],[-0.1814814814814815],[1],[0],[0],,1.7717299,,1,2024-10-08_13h04.47.628,VisualSearchExperiment,2024.1.5,None,2024-10-08 13h04.56.951059 +0530
52,0,52,0,122.7447688,,122.6998934,10,122.7447688,122.7447688,0.0313131,124.96385,[0.362962962962963],[-0.2212962962962963],[1],[0],[0],,2.2327029,,1,2024-10-08_13h04.47.628,VisualSearchExperiment,2024.1.5,None,2024-10-08 13h04.56.951059 +0530
53,0,53,0,124.9911425,,124.9667823,5,124.9911425,124.9911425,0.017624,127.2638041,[-0.30092592592592593],[0.41203703703703703],[1],[0],[0],,2.2794737,,1,2024-10-08_13h04.47.628,VisualSearchExperiment,2024.1.5,None,2024-10-08 13h04.56.951059 +0530
54,0,54,0,127.3170723,,127.2670799,10,127.3170723,127.3170723,0.0390933,132.8309909,[0.15648148148148147],[0.4648148148148148],[1],[0],[0],,5.5249073,,1,2024-10-08_13h04.47.628,VisualSearchExperiment,2024.1.5,None,2024-10-08 13h04.56.951059 +0530
55,0,55,0,132.8774188,,132.8338146,10,132.8774188,132.8774188,0.0329852,134.7465278,[0.03796296296296296],[0.3296296296296296],[1],[0],[0],,1.8799322,,1,2024-10-08_13h04.47.628,VisualSearchExperiment,2024.1.5,None,2024-10-08 13h04.56.951059 +0530
56,0,56,0,134.7718163,,134.7493123,5,134.7718163,134.7718163,0.01595,137.7135175,[-0.35833333333333334],[-0.46944444444444444],[1],[0],[0],,2.9484594,,1,2024-10-08_13h04.47.628,VisualSearchExperiment,2024.1.5,None,2024-10-08 13h04.56.951059 +0530
57,0,57,0,137.7392501,,137.7164475,5,137.7392501,137.7392501,0.0164643,140.9307514,[0.4009259259259259],[-0.2212962962962963],[1],[0],[0],,3.1980239,,1,2024-10-08_13h04.47.628,VisualSearchExperiment,2024.1.5,None,2024-10-08 13h04.56.951059 +0530
58,0,58,0,140.9770673,,140.9341338,10,140.9770673,140.9770673,0.0320273,142.6305738,[0.12129629629629629],[0.37222222222222223],[1],[0],[0],,1.6645769,,1,2024-10-08_13h04.47.628,VisualSearchExperiment,2024.1.5,None,2024-10-08 13h04.56.951059 +0530
59,0,59,0,142.6629552,,142.6355645,5,142.6629552,142.6629552,0.0202724,144.4131737,[0.34074074074074073],[0.24722222222222223],[1],[0],[0],,1.7578771,,1,2024-10-08_13h04.47.628,VisualSearchExperiment,2024.1.5,None,2024-10-08 13h04.56.951059 +0530
60,0,60,0,144.4412994,,144.4170366,5,144.4412994,144.4412994,0.0176037,146.2314271,[0.26666666666666666],[-0.12962962962962962],[1],[0],[0],,1.7969777,,1,2024-10-08_13h04.47.628,VisualSearchExperiment,2024.1.5,None,2024-10-08 13h04.56.951059 +0530
61,0,61,0,146.2794587,,146.2342504,10,146.2794587,146.2794587,0.03477,148.6304281,[-0.4009259259259259],[0.12962962962962962],[1],[0],[0],,2.3616427,,1,2024-10-08_13h04.47.628,VisualSearchExperiment,2024.1.5,None,2024-10-08 13h04.56.951059 +0530
62,0,62,0,148.6777648,,148.6332551,10,148.6777648,148.6777648,0.0311932,150.7145666,[0.3907407407407407],[0.4074074074074074],[1],[0],[0],,2.0501772,,1,2024-10-08_13h04.47.628,VisualSearchExperiment,2024.1.5,None,2024-10-08 13h04.56.951059 +0530
63,0,63,0,150.7393264,,150.7174824,5,150.7393264,150.7393264,0.015227,152.8308456,[-0.2796296296296296],[-0.14629629629629629],[1],[0],[0],,2.0983559,,1,2024-10-08_13h04.47.628,VisualSearchExperiment,2024.1.5,None,2024-10-08 13h04.56.951059 +0530
64,0,64,0,152.8789262,,152.8336464,10,152.8789262,152.8789262,0.0347305,155.1972559,[0.11574074074074074],[-0.24351851851851852],[1],[0],[0],,2.3290211,,1,2024-10-08_13h04.47.628,VisualSearchExperiment,2024.1.5,None,2024-10-08 13h04.56.951059 +0530
65,0,65,0,155.2276012,,155.2006684,5,155.2276012,155.2276012,0.0202821,157.2472785,[-0.35833333333333334],[0.17685185185185184],[1],[0],[0],,2.026546,,1,2024-10-08_13h04.47.628,VisualSearchExperiment,2024.1.5,None,2024-10-08 13h04.56.951059 +0530
66,0,66,0,157.2970388,,157.2502277,10,157.2970388,157.2970388,0.0347937,159.4805133,[-0.03611111111111111],[0.05277777777777778],[1],[0],[0],,2.1956216,,1,2024-10-08_13h04.47.628,VisualSearchExperiment,2024.1.5,None,2024-10-08 13h04.56.951059 +0530
67,0,67,0,159.5255162,,159.4833437,10,159.5255162,159.5255162,0.0311739,161.7807438,[0.47962962962962963],[-0.1712962962962963],[1],[0],[0],,2.2661513,,1,2024-10-08_13h04.47.628,VisualSearchExperiment,2024.1.5,None,2024-10-08 13h04.56.951059 +0530
68,0,68,0,161.8366887,,161.7850026,10,161.8366887,161.8366887,0.0393372,163.9472978,[0.49074074074074076],[-0.4101851851851852],[1],[0],[0],,2.122982,,1,2024-10-08_13h04.47.628,VisualSearchExperiment,2024.1.5,None,2024-10-08 13h04.56.951059 +0530
69,0,69,0,163.9717158,,163.9501029,5,163.9717158,163.9717158,0.0146434,165.897717,[-0.11666666666666667],[-0.15648148148148147],[1],[0],[0],,1.9330484,,1,2024-10-08_13h04.47.628,VisualSearchExperiment,2024.1.5,None,2024-10-08 13h04.56.951059 +0530
70,0,70,0,165.9479661,,165.9015276,10,165.9479661,165.9479661,0.0352551,168.8477505,[-0.45555555555555555],[0.24074074074074073],[1],[0],[0],,2.9110695,,1,2024-10-08_13h04.47.628,VisualSearchExperiment,2024.1.5,None,2024-10-08 13h04.56.951059 +0530
71,0,71,0,168.9030152,,168.8517262,10,168.9030152,168.9030152,0.0383831,170.3145154,[-0.4324074074074074],[0.37962962962962965],[1],[0],[0],,1.4248976,,1,2024-10-08_13h04.47.628,VisualSearchExperiment,2024.1.5,None,2024-10-08 13h04.56.951059 +0530
72,0,72,0,170.3590061,,170.317314,10,170.3590061,170.3590061,0.0310006,172.6142285,[-0.3814814814814815],[-0.2],[1],[0],[0],,2.2660736,,1,2024-10-08_13h04.47.628,VisualSearchExperiment,2024.1.5,None,2024-10-08 13h04.56.951059 +0530
73,0,73,0,172.663005,,172.617061,10,172.663005,172.663005,0.0348983,175.6982144,[0.09907407407407408],[-0.3824074074074074],[1],[0],[0],,3.0464051,,1,2024-10-08_13h04.47.628,VisualSearchExperiment,2024.1.5,None,2024-10-08 13h04.56.951059 +0530
74,0,74,0,175.7371031,,175.7041375,5,175.7371031,175.7371031,0.0257495,177.9142851,[0.33425925925925926],[-0.21203703703703702],[1],[0],[0],,2.1852413,,1,2024-10-08_13h04.47.628,VisualSearchExperiment,2024.1.5,None,2024-10-08 13h04.56.951059 +0530
75,0,75,0,177.9396495,,177.9171605,5,177.9396495,177.9396495,0.015989,179.8302623,[0.31574074074074077],[0.13055555555555556],[1],[0],[0],,1.8973949,,1,2024-10-08_13h04.47.628,VisualSearchExperiment,2024.1.5,None,2024-10-08 13h04.56.951059 +0530
76,0,76,0,179.8616684,,179.8346829,5,179.8616684,179.8616684,0.0207754,181.7637736,[0.4666666666666667],[0.125],[1],[0],[0],,1.9090233,,1,2024-10-08_13h04.47.628,VisualSearchExperiment,2024.1.5,None,2024-10-08 13h04.56.951059 +0530
77,0,77,0,181.8116661,,181.7666002,10,181.8116661,181.8116661,0.0334759,184.3472278,[0.3962962962962963],[-0.27037037037037037],[1],[0],[0],,2.5472736,,1,2024-10-08_13h04.47.628,VisualSearchExperiment,2024.1.5,None,2024-10-08 13h04.56.951059 +0530
78,0,78,0,184.3931326,,184.3503776,10,184.3931326,184.3931326,0.0291572,186.7146674,[0.12129629629629629],[-0.36203703703703705],[1],[0],[0],,2.3353287,,1,2024-10-08_13h04.47.628,VisualSearchExperiment,2024.1.5,None,2024-10-08 13h04.56.951059 +0530
79,0,79,0,186.7582459,,186.7174825,10,186.7582459,186.7582459,0.0300629,189.9477775,[-0.18425925925925926],[-0.3277777777777778],[1],[0],[0],,3.2002521,,1,2024-10-08_13h04.47.628,VisualSearchExperiment,2024.1.5,None,2024-10-08 13h04.56.951059 +0530
80,0,80,0,189.9740699,,189.9517607,5,189.9740699,189.9740699,0.0157545,191.8310668,[-0.40370370370370373],[-0.412962962962963],[1],[0],[0],,1.8637812,,1,2024-10-08_13h04.47.628,VisualSearchExperiment,2024.1.5,None,2024-10-08 13h04.56.951059 +0530
81,0,81,0,191.8568621,,191.8338464,5,191.8568621,191.8568621,0.0161729,193.9140093,[0.30833333333333335],[0.24259259259259258],[1],[0],[0],,2.0640927,,1,2024-10-08_13h04.47.628,VisualSearchExperiment,2024.1.5,None,2024-10-08 13h04.56.951059 +0530
82,0,82,0,193.964267,,193.9174357,10,193.964267,193.964267,0.0340505,195.6974629,[-0.3907407407407407],[-0.3453703703703704],[1],[0],[0],,1.7461534,,1,2024-10-08_13h04.47.628,VisualSearchExperiment,2024.1.5,None,2024-10-08 13h04.56.951059 +0530
83,0,83,0,195.7486392,,195.7002539,10,195.7486392,195.7486392,0.0344328,197.3978849,[-0.35185185185185186],[-0.10555555555555556],[1],[0],[0],,1.6633687,,1,2024-10-08_13h04.47.628,VisualSearchExperiment,2024.1.5,None,2024-10-08 13h04.56.951059 +0530
84,0,84,0,197.4450859,,197.4007592,10,197.4450859,197.4450859,0.0301366,200.2811204,[0.4166666666666667],[0.3851851851851852],[1],[0],[0],,2.8503303,,1,2024-10-08_13h04.47.628,VisualSearchExperiment,2024.1.5,None,2024-10-08 13h04.56.951059 +0530
85,0,85,0,200.3281468,,200.2839978,10,200.3281468,200.3281468,0.0336814,203.5144178,[0.4203703703703704],[-0.10648148148148148],[1],[0],[0],,3.1969339,,1,2024-10-08_13h04.47.628,VisualSearchExperiment,2024.1.5,None,2024-10-08 13h04.56.951059 +0530
86,0,86,0,203.5389915,,203.517291,5,203.5389915,203.5389915,0.014726,205.7318123,[-0.17407407407407408],[0.12037037037037036],[1],[0],[0],,2.1998782,,1,2024-10-08_13h04.47.628,VisualSearchExperiment,2024.1.5,None,2024-10-08 13h04.56.951059 +0530
87,0,87,0,205.7632704,,205.7364113,5,205.7632704,205.7632704,0.019397,208.2311619,[-0.2972222222222222],[-0.08796296296296297],[1],[0],[0],,2.4761144,,1,2024-10-08_13h04.47.628,VisualSearchExperiment,2024.1.5,None,2024-10-08 13h04.56.951059 +0530
88,0,88,0,208.2569416,,208.2340557,5,208.2569416,208.2569416,0.0155463,209.6816521,[-0.33611111111111114],[0.26481481481481484],[1],[0],[0],,1.4320039,,1,2024-10-08_13h04.47.628,VisualSearchExperiment,2024.1.5,None,2024-10-08 13h04.56.951059 +0530
89,0,89,0,209.7347389,,209.6868819,10,209.7347389,209.7347389,0.0331085,212.614108,[-0.39814814814814814],[-0.45740740740740743],[1],[0],[0],,2.8944997,,1,2024-10-08_13h04.47.628,VisualSearchExperiment,2024.1.5,None,2024-10-08 13h04.56.951059 +0530
90,0,90,0,212.6391985,,212.6168956,5,212.6391985,212.6391985,0.0155558,214.6980453,[-0.09259259259259259],[-0.07314814814814814],[1],[0],[0],,2.065723,,1,2024-10-08_13h04.47.628,VisualSearchExperiment,2024.1.5,None,2024-10-08 13h04.56.951059 +0530
91,0,91,0,214.7274852,,214.702316,5,214.7274852,214.7274852,0.0187033,216.5144415,[-0.16666666666666666],[-0.13518518518518519],[1],[0],[0],,1.7941603,,1,2024-10-08_13h04.47.628,VisualSearchExperiment,2024.1.5,None,2024-10-08 13h04.56.951059 +0530
92,0,92,0,216.557182,,216.5176559,10,216.557182,216.557182,0.0290284,218.4641827,[0.26666666666666666],[0.2],[1],[0],[0],,1.9177344,,1,2024-10-08_13h04.47.628,VisualSearchExperiment,2024.1.5,None,2024-10-08 13h04.56.951059 +0530
93,0,93,0,218.5213421,,218.469206,10,218.5213421,218.5213421,0.0391012,221.5975049,[0.2222222222222222],[-0.44351851851851853],[1],[0],[0],,3.0899642,,1,2024-10-08_13h04.47.628,VisualSearchExperiment,2024.1.5,None,2024-10-08 13h04.56.951059 +0530
94,0,94,0,221.6450973,,221.6002761,10,221.6450973,221.6450973,0.0329111,223.7978106,[-0.27037037037037037],[-0.27685185185185185],[1],[0],[0],,2.1647879,,1,2024-10-08_13h04.47.628,VisualSearchExperiment,2024.1.5,None,2024-10-08 13h04.56.951059 +0530
95,0,95,0,223.8440713,,223.8020998,10,223.8440713,223.8440713,0.0323564,226.214713,[-0.23796296296296296],[0.38796296296296295],[1],[0],[0],,2.3810433,,1,2024-10-08_13h04.47.628,VisualSearchExperiment,2024.1.5,None,2024-10-08 13h04.56.951059 +0530
96,0,96,0,226.2573309,,226.2174809,10,226.2573309,226.2573309,0.0286782,229.0645632,[0.39351851851851855],[-0.39814814814814814],[1],[0],[0],,2.8185249,,1,2024-10-08_13h04.47.628,VisualSearchExperiment,2024.1.5,None,2024-10-08 13h04.56.951059 +0530
97,0,97,0,229.1179512,,229.0673573,10,229.1179512,229.1179512,0.0378273,231.2819516,[-0.41944444444444445],[-0.3],[1],[0],[0],,2.1769186,,1,2024-10-08_13h04.47.628,VisualSearchExperiment,2024.1.5,None,2024-10-08 13h04.56.951059 +0530
98,0,98,0,231.306906,,231.2848155,5,231.306906,231.306906,0.0152662,233.3816311,[-0.34074074074074073],[0.2175925925925926],[1],[0],[0],,2.0816097,,1,2024-10-08_13h04.47.628,VisualSearchExperiment,2024.1.5,None,2024-10-08 13h04.56.951059 +0530
99,0,99,0,233.4319538,,233.3844491,10,233.4319538,233.4319538,0.0344767,236.431464,[0.3490740740740741],[0.44907407407407407],[1],[0],[0],,3.0126886,,1,2024-10-08_13h04.47.628,VisualSearchExperiment,2024.1.5,None,2024-10-08 13h04.56.951059 +0530
100,0,100,0,236.4576809,,236.4344006,5,236.4576809,236.4576809,0.016833,239.9981413,[-0.12037037037037036],[-0.3731481481481482],[1],[0],[0],,3.5472438,,1,2024-10-08_13h04.47.628,VisualSearchExperiment,2024.1.5,None,2024-10-08 13h04.56.951059 +0530
101,0,101,0,240.0410128,,240.0009453,10,240.0410128,240.0410128,0.0292184,241.8486965,[-0.08888888888888889],[0.09166666666666666],[1],[0],[0],,1.8184184,,1,2024-10-08_13h04.47.628,VisualSearchExperiment,2024.1.5,None,2024-10-08 13h04.56.951059 +0530
102,0,102,0,241.9007811,,241.8524303,10,241.9007811,241.9007811,0.0357459,243.8649178,[0.49166666666666664],[0.053703703703703705],[1],[0],[0],,1.9770383,,1,2024-10-08_13h04.47.628,VisualSearchExperiment,2024.1.5,None,2024-10-08 13h04.56.951059 +0530
103,0,103,0,243.9166029,,243.8704419,10,243.9166029,243.9166029,0.0345649,247.0316565,[0.07037037037037037],[-0.24537037037037038],[1],[0],[0],,3.1274735,,1,2024-10-08_13h04.47.628,VisualSearchExperiment,2024.1.5,None,2024-10-08 13h04.56.951059 +0530
104,0,104,0,247.0651348,,247.0344697,5,247.0651348,247.0651348,0.0200844,248.731364,[0.27870370370370373],[0.08703703703703704],[1],[0],[0],,1.6770367,,1,2024-10-08_13h04.47.628,VisualSearchExperiment,2024.1.5,None,2024-10-08 13h04.56.951059 +0530
105,0,105,0,248.7556701,,248.734159,5,248.7556701,248.7556701,0.0149553,250.5650094,[-0.32407407407407407],[-0.2777777777777778],[1],[0],[0],,1.8160379,,1,2024-10-08_13h04.47.628,VisualSearchExperiment,2024.1.5,None,2024-10-08 13h04.56.951059 +0530
106,0,106,0,250.6289012,,250.5702838,10,250.6289012,250.6289012,0.0443798,254.1978735,[0.16018518518518518],[-0.15555555555555556],[1],[0],[0],,3.5839569,,1,2024-10-08_13h04.47.628,VisualSearchExperiment,2024.1.5,None,2024-10-08 13h04.56.951059 +0530
107,0,107,0,254.2480813,,254.2010636,10,254.2480813,254.2480813,0.0350015,256.0984136,[0.45740740740740743],[-0.2388888888888889],[1],[0],[0],,1.8628606,,1,2024-10-08_13h04.47.628,VisualSearchExperiment,2024.1.5,None,2024-10-08 13h04.56.951059 +0530
108,0,108,0,256.1255649,,256.1011649,5,256.1255649,256.1255649,0.0174904,258.1321156,[0.04722222222222222],[0.42685185185185187],[1],[0],[0],,2.0136106,,1,2024-10-08_13h04.47.628,VisualSearchExperiment,2024.1.5,None,2024-10-08 13h04.56.951059 +0530
109,0,109,0,258.1842099,,258.1348975,10,258.1842099,258.1842099,0.0358434,261.0814695,[-0.4],[0.1925925925925926],[1],[0],[0],,2.9109439,,1,2024-10-08_13h04.47.628,VisualSearchExperiment,2024.1.5,None,2024-10-08 13h04.56.951059 +0530
110,0,110,0,261.13466,,261.0842173,10,261.13466,261.13466,0.0368216,263.348445,[-0.48148148148148145],[0.3787037037037037],[1],[0],[0],,2.227558,,1,2024-10-08_13h04.47.628,VisualSearchExperiment,2024.1.5,None,2024-10-08 13h04.56.951059 +0530
111,0,111,0,263.4021844,,263.3524069,10,263.4021844,263.4021844,0.0373957,265.1812361,[-0.30462962962962964],[0.13240740740740742],[1],[0],[0],,1.7917273,,1,2024-10-08_13h04.47.628,VisualSearchExperiment,2024.1.5,None,2024-10-08 13h04.56.951059 +0530
112,0,112,0,265.2100497,,265.1846848,5,265.2100497,265.2100497,0.018174,266.9661203,[-0.3398148148148148],[0.06481481481481481],[1],[0],[0],,1.7633477,,1,2024-10-08_13h04.47.628,VisualSearchExperiment,2024.1.5,None,2024-10-08 13h04.56.951059 +0530
113,0,113,0,266.9936827,,266.9692797,5,266.9936827,266.9936827,0.0174653,269.1655976,[0.20185185185185187],[0.21944444444444444],[1],[0],[0],,2.1790467,,1,2024-10-08_13h04.47.628,VisualSearchExperiment,2024.1.5,None,2024-10-08 13h04.56.951059 +0530
114,0,114,0,269.2167756,,269.168336,10,269.2167756,269.2167756,0.0325171,272.6317623,[-0.15555555555555556],[-0.020370370370370372],[1],[0],[0],,3.4310545,,1,2024-10-08_13h04.47.628,VisualSearchExperiment,2024.1.5,None,2024-10-08 13h04.56.951059 +0530
115,0,115,0,272.6555755,,272.6345393,5,272.6555755,272.6555755,0.014699,274.6651035,[0.3351851851851852],[-0.020370370370370372],[1],[0],[0],,2.0160248,,1,2024-10-08_13h04.47.628,VisualSearchExperiment,2024.1.5,None,2024-10-08 13h04.56.951059 +0530
116,0,116,0,274.6930509,,274.6679305,5,274.6930509,274.6930509,0.0160112,276.582879,[0.33425925925925926],[0.26481481481481484],[1],[0],[0],,1.8987801,,1,2024-10-08_13h04.47.628,VisualSearchExperiment,2024.1.5,None,2024-10-08 13h04.56.951059 +0530
117,0,117,0,276.6162663,,276.5875456,5,276.6162663,276.6162663,0.0206306,278.8487694,[-0.4722222222222222],[-0.2490740740740741],[1],[0],[0],,2.2407604,,1,2024-10-08_13h04.47.628,VisualSearchExperiment,2024.1.5,None,2024-10-08 13h04.56.951059 +0530
118,0,118,0,278.8968822,,278.8516534,10,278.8968822,278.8968822,0.0329015,281.665141,[-0.40185185185185185],[-0.425],[1],[0],[0],,2.7806825,,1,2024-10-08_13h04.47.628,VisualSearchExperiment,2024.1.5,None,2024-10-08 13h04.56.951059 +0530
119,0,119,0,281.716111,,281.6688228,10,281.716111,281.716111,0.0341782,284.6991332,[0.24722222222222223],[0.4212962962962963],[1],[0],[0],,2.9962805,,1,2024-10-08_13h04.47.628,VisualSearchExperiment,2024.1.5,None,2024-10-08 13h04.56.951059 +0530
120,0,120,0,284.7507188,,284.7019977,10,284.7507188,284.7507188,0.0322591,289.0319358,[-0.4888888888888889],[-0.3212962962962963],[1],[0],[0],,4.2978678,,1,2024-10-08_13h04.47.628,VisualSearchExperiment,2024.1.5,None,2024-10-08 13h04.56.951059 +0530
121,0,121,0,289.0572153,,289.0347239,5,289.0572153,289.0572153,0.0146201,291.3318847,[0.38981481481481484],[-0.18333333333333332],[1],[0],[0],,2.2827478,,1,2024-10-08_13h04.47.628,VisualSearchExperiment,2024.1.5,None,2024-10-08 13h04.56.951059 +0530
122,0,122,0,291.3881716,,291.3348474,10,291.3881716,291.3881716,0.0415579,293.2483327,[-0.1962962962962963],[-0.12777777777777777],[1],[0],[0],,1.8720147,,1,2024-10-08_13h04.47.628,VisualSearchExperiment,2024.1.5,None,2024-10-08 13h04.56.951059 +0530
123,0,123,0,293.2936227,,293.252174,10,293.2936227,293.2936227,0.0292405,295.499353,[0.026851851851851852],[0.38796296296296295],[1],[0],[0],,2.2182428,,1,2024-10-08_13h04.47.628,VisualSearchExperiment,2024.1.5,None,2024-10-08 13h04.56.951059 +0530
124,0,124,0,295.546198,,295.5024979,10,295.546198,295.546198,0.0320435,298.8488722,[0.4824074074074074],[0.020370370370370372],[1],[0],[0],,3.3144681,,1,2024-10-08_13h04.47.628,VisualSearchExperiment,2024.1.5,None,2024-10-08 13h04.56.951059 +0530
125,0,125,0,298.8736304,,298.8519306,5,298.8736304,298.8736304,0.0151483,301.8985244,[-0.43333333333333335],[0.37962962962962965],[1],[0],[0],,3.0316484,,1,2024-10-08_13h04.47.628,VisualSearchExperiment,2024.1.5,None,2024-10-08 13h04.56.951059 +0530
126,0,126,0,301.9427479,,301.901428,10,301.9427479,301.9427479,0.0307345,304.8155428,[0.22314814814814815],[0.04351851851851852],[1],[0],[0],,2.8835093,,1,2024-10-08_13h04.47.628,VisualSearchExperiment,2024.1.5,None,2024-10-08 13h04.56.951059 +0530
127,0,127,0,304.843777,,304.8183369,5,304.843777,304.843777,0.0162981,307.5658258,[-0.06851851851851852],[0.3574074074074074],[1],[0],[0],,2.7314371,,1,2024-10-08_13h04.47.628,VisualSearchExperiment,2024.1.5,None,2024-10-08 13h04.56.951059 +0530
128,0,128,0,307.5928611,,307.5685951,5,307.5928611,307.5928611,0.0160053,309.9153712,[0.1962962962962963],[-0.3824074074074074],[1],[0],[0],,2.3308509,,1,2024-10-08_13h04.47.628,VisualSearchExperiment,2024.1.5,None,2024-10-08 13h04.56.951059 +0530
129,0,129,0,310.007402,,309.9182088,10,310.007402,310.007402,0.0752209,312.9322201,[0.4305555555555556],[-0.1675925925925926],[1],[0],[0],,2.9388822,,1,2024-10-08_13h04.47.628,VisualSearchExperiment,2024.1.5,None,2024-10-08 13h04.56.951059 +0530
130,0,130,0,312.9603536,,312.9350118,5,312.9603536,312.9603536,0.0175517,314.7821185,[0.4675925925925926],[-0.29259259259259257],[1],[0],[0],,1.829727,,1,2024-10-08_13h04.47.628,VisualSearchExperiment,2024.1.5,None,2024-10-08 13h04.56.951059 +0530
131,0,131,0,314.82932,,314.7850984,10,314.82932,314.82932,0.0340081,316.9319322,[-0.030555555555555555],[-0.06851851851851852],[1],[0],[0],,2.1130097,,1,2024-10-08_13h04.47.628,VisualSearchExperiment,2024.1.5,None,2024-10-08 13h04.56.951059 +0530
132,0,132,0,316.977725,,316.9347719,10,316.977725,316.977725,0.0287989,319.3655427,[0.4787037037037037],[0.4388888888888889],[1],[0],[0],,2.4021987,,1,2024-10-08_13h04.47.628,VisualSearchExperiment,2024.1.5,None,2024-10-08 13h04.56.951059 +0530
133,0,133,0,319.3903449,,319.3683711,5,319.3903449,319.3903449,0.0152516,321.1319202,[0.2518518518518518],[-0.053703703703703705],[1],[0],[0],,1.7485329,,1,2024-10-08_13h04.47.628,VisualSearchExperiment,2024.1.5,None,2024-10-08 13h04.56.951059 +0530
134,0,134,0,321.1641044,,321.1354859,5,321.1641044,321.1641044,0.021966,324.6161281,[-0.14629629629629629],[-0.3351851851851852],[1],[0],[0],,3.4594312,,1,2024-10-08_13h04.47.628,VisualSearchExperiment,2024.1.5,None,2024-10-08 13h04.56.951059 +0530
135,0,135,0,324.641369,,324.6189158,5,324.641369,324.641369,0.0156741,327.7494458,[0.4083333333333333],[0.41574074074074074],[1],[0],[0],,3.1149563,,1,2024-10-08_13h04.47.628,VisualSearchExperiment,2024.1.5,None,2024-10-08 13h04.56.951059 +0530
136,0,136,0,327.7985843,,327.7537144,10,327.7985843,327.7985843,0.033584,330.0157462,[-0.022222222222222223],[-0.23425925925925925],[1],[0],[0],,2.2292471,,1,2024-10-08_13h04.47.628,VisualSearchExperiment,2024.1.5,None,2024-10-08 13h04.56.951059 +0530
137,0,137,0,330.0407382,,330.0184397,5,330.0407382,330.0407382,0.0158352,332.4324201,[-0.4083333333333333],[-0.19722222222222222],[1],[0],[0],,2.3983257,,1,2024-10-08_13h04.47.628,VisualSearchExperiment,2024.1.5,None,2024-10-08 13h04.56.951059 +0530
138,0,138,0,332.4567624,,332.4352132,5,332.4567624,332.4567624,0.0145976,335.2657706,[0.2657407407407407],[0.2388888888888889],[1],[0],[0],,2.8161031,,1,2024-10-08_13h04.47.628,VisualSearchExperiment,2024.1.5,None,2024-10-08 13h04.56.951059 +0530
139,0,139,0,335.2956898,,335.2690703,5,335.2956898,335.2956898,0.0162073,337.6159129,[0.2972222222222222],[-0.21666666666666667],[1],[0],[0],,2.3307629,,1,2024-10-08_13h04.47.628,VisualSearchExperiment,2024.1.5,None,2024-10-08 13h04.56.951059 +0530
140,0,140,0,337.6631615,,337.618856,10,337.6631615,337.6631615,0.031207,339.9992465,[0.4824074074074074],[0.05648148148148148],[1],[0],[0],,2.349217,,1,2024-10-08_13h04.47.628,VisualSearchExperiment,2024.1.5,None,2024-10-08 13h04.56.951059 +0530
141,0,141,0,340.0505425,,340.0022758,10,340.0505425,340.0505425,0.0349207,344.6490083,[-0.47962962962962963],[-0.38796296296296295],[1],[0],[0],,4.6120382,,1,2024-10-08_13h04.47.628,VisualSearchExperiment,2024.1.5,None,2024-10-08 13h04.56.951059 +0530
142,0,142,0,344.6938653,,344.6518409,10,344.6938653,344.6938653,0.0315937,347.349191,[0.3962962962962963],[-0.3111111111111111],[1],[0],[0],,2.6660153,,1,2024-10-08_13h04.47.628,VisualSearchExperiment,2024.1.5,None,2024-10-08 13h04.56.951059 +0530
143,0,143,0,347.3779088,,347.3539595,5,347.3779088,347.3779088,0.0182172,349.2826873,[-0.041666666666666664],[-0.10740740740740741],[1],[0],[0],,1.911245,,1,2024-10-08_13h04.47.628,VisualSearchExperiment,2024.1.5,None,2024-10-08 13h04.56.951059 +0530
144,0,144,0,349.307683,,349.2857521,5,349.307683,349.307683,0.0152707,351.7825624,[0.2638888888888889],[-0.028703703703703703],[1],[0],[0],,2.4818148,,1,2024-10-08_13h04.47.628,VisualSearchExperiment,2024.1.5,None,2024-10-08 13h04.56.951059 +0530
145,0,145,0,351.8273446,,351.7853168,10,351.8273446,351.8273446,0.0289649,353.6660626,[0.22407407407407406],[0.125],[1],[0],[0],,1.8519838,,1,2024-10-08_13h04.47.628,VisualSearchExperiment,2024.1.5,None,2024-10-08 13h04.56.951059 +0530
146,0,146,0,353.6909632,,353.6688517,5,353.6909632,353.6909632,0.0150343,355.8331051,[-0.12777777777777777],[0.20925925925925926],[1],[0],[0],,2.1493184,,1,2024-10-08_13h04.47.628,VisualSearchExperiment,2024.1.5,None,2024-10-08 13h04.56.951059 +0530
147,0,147,0,355.8830016,,355.8367367,10,355.8830016,355.8830016,0.0360119,357.4153077,[-0.4185185185185185],[0.19166666666666668],[1],[0],[0],,1.5434864,,1,2024-10-08_13h04.47.628,VisualSearchExperiment,2024.1.5,None,2024-10-08 13h04.56.951059 +0530
148,0,148,0,357.4644313,,357.4181582,10,357.4644313,357.4644313,0.0346368,360.082368,[0.07962962962962963],[-0.4101851851851852],[1],[0],[0],,2.6297944,,1,2024-10-08_13h04.47.628,VisualSearchExperiment,2024.1.5,None,2024-10-08 13h04.56.951059 +0530
149,0,149,0,360.1365266,,360.085228,10,360.1365266,360.1365266,0.0391442,362.1495165,[0.23703703703703705],[-0.3037037037037037],[1],[0],[0],,2.0251869,,1,2024-10-08_13h04.47.628,VisualSearchExperiment,2024.1.5,None,2024-10-08 13h04.56.951059 +0530
150,0,150,0,362.1759916,,362.1528449,5,362.1759916,362.1759916,0.016627,364.600086,[0.4074074074074074],[0.42314814814814816],[1],[0],[0],,2.4306948,,1,2024-10-08_13h04.47.628,VisualSearchExperiment,2024.1.5,None,2024-10-08 13h04.56.951059 +0530
151,0,151,0,364.6537138,,364.605524,10,364.6537138,364.6537138,0.0348384,368.4828954,[0.43425925925925923],[-0.037037037037037035],[1],[0],[0],,3.8431712,,1,2024-10-08_13h04.47.628,VisualSearchExperiment,2024.1.5,None,2024-10-08 13h04.56.951059 +0530
152,0,152,0,368.53613,,368.4859842,10,368.53613,368.53613,0.0371422,371.9489707,[-0.06759259259259259],[0.3962962962962963],[1],[0],[0],,3.4260837,,1,2024-10-08_13h04.47.628,VisualSearchExperiment,2024.1.5,None,2024-10-08 13h04.56.951059 +0530
153,0,153,0,371.9956473,,371.9517731,10,371.9956473,371.9956473,0.0319278,374.0664056,[0.12037037037037036],[0.2935185185185185],[1],[0],[0],,2.0828663,,1,2024-10-08_13h04.47.628,VisualSearchExperiment,2024.1.5,None,2024-10-08 13h04.56.951059 +0530
154,0,154,0,374.1126541,,374.0693214,10,374.1126541,374.1126541,0.0327421,376.3159928,[-0.3712962962962963],[0.10925925925925926],[1],[0],[0],,2.2141085,,1,2024-10-08_13h04.47.628,VisualSearchExperiment,2024.1.5,None,2024-10-08 13h04.56.951059 +0530
155,0,155,0,376.3640335,,376.3188974,10,376.3640335,376.3640335,0.0342518,379.3331222,[0.44166666666666665],[-0.18611111111111112],[1],[0],[0],,2.9802405,,1,2024-10-08_13h04.47.628,VisualSearchExperiment,2024.1.5,None,2024-10-08 13h04.56.951059 +0530
156,0,156,0,379.3636188,,379.3363141,5,379.3636188,379.3636188,0.018424,382.2494896,[0.2212962962962963],[0.16296296296296298],[1],[0],[0],,2.8949707,,1,2024-10-08_13h04.47.628,VisualSearchExperiment,2024.1.5,None,2024-10-08 13h04.56.951059 +0530
157,0,157,0,382.2929839,,382.2523811,10,382.2929839,382.2929839,0.0300624,384.8669265,[0.23425925925925925],[0.29444444444444445],[1],[0],[0],,2.5845566,,1,2024-10-08_13h04.47.628,VisualSearchExperiment,2024.1.5,None,2024-10-08 13h04.56.951059 +0530
158,0,158,0,384.8932269,,384.8702976,5,384.8932269,384.8932269,0.0164883,386.9831321,[0.08518518518518518],[0.09722222222222222],[1],[0],[0],,2.096408,,1,2024-10-08_13h04.47.628,VisualSearchExperiment,2024.1.5,None,2024-10-08 13h04.56.951059 +0530
159,0,159,0,387.0092564,,386.9875918,5,387.0092564,387.0092564,0.0149909,388.566749,[0.36018518518518516],[-0.20833333333333334],[1],[0],[0],,1.564323,,1,2024-10-08_13h04.47.628,VisualSearchExperiment,2024.1.5,None,2024-10-08 13h04.56.951059 +0530
160,0,160,0,388.6146646,,388.5716597,10,388.6146646,388.6146646,0.0326466,393.1826372,[0.4212962962962963],[-0.46574074074074073],[1],[0],[0],,4.5787014,,1,2024-10-08_13h04.47.628,VisualSearchExperiment,2024.1.5,None,2024-10-08 13h04.56.951059 +0530
161,0,161,0,393.213059,,393.1873717,5,393.213059,393.213059,0.0188975,396.6497443,[-0.4564814814814815],[0.0962962962962963],[1],[0],[0],,3.4436894,,1,2024-10-08_13h04.47.628,VisualSearchExperiment,2024.1.5,None,2024-10-08 13h04.56.951059 +0530
162,0,162,0,396.6738943,,396.6525887,5,396.6738943,396.6738943,0.0151035,399.8663483,[0.05092592592592592],[-0.4083333333333333],[1],[0],[0],,3.1988994,,1,2024-10-08_13h04.47.628,VisualSearchExperiment,2024.1.5,None,2024-10-08 13h04.56.951059 +0530
163,0,163,0,399.8936241,,399.8693102,5,399.8936241,399.8936241,0.0159787,402.5663025,[0.016666666666666666],[0.4898148148148148],[1],[0],[0],,2.6812254,,1,2024-10-08_13h04.47.628,VisualSearchExperiment,2024.1.5,None,2024-10-08 13h04.56.951059 +0530
164,0,164,0,402.5964274,,402.5691344,5,402.5964274,402.5964274,0.0192431,404.333101,[0.125],[-0.24722222222222223],[1],[0],[0],,1.7448918,,1,2024-10-08_13h04.47.628,VisualSearchExperiment,2024.1.5,None,2024-10-08 13h04.56.951059 +0530
165,0,165,0,404.3590533,,404.3358756,5,404.3590533,404.3590533,0.0166517,406.4161968,[-0.46111111111111114],[0.29814814814814816],[1],[0],[0],,2.0636989,,1,2024-10-08_13h04.47.628,VisualSearchExperiment,2024.1.5,None,2024-10-08 13h04.56.951059 +0530
166,0,166,0,406.447936,,406.4201616,5,406.447936,406.447936,0.0216437,407.8664536,[0.17222222222222222],[0.0787037037037037],[1],[0],[0],,1.425391,,1,2024-10-08_13h04.47.628,VisualSearchExperiment,2024.1.5,None,2024-10-08 13h04.56.951059 +0530
167,0,167,0,407.9174775,,407.8692199,10,407.9174775,407.9174775,0.036737,409.6828286,[-0.12314814814814815],[-0.013888888888888888],[1],[0],[0],,1.7769975,,1,2024-10-08_13h04.47.628,VisualSearchExperiment,2024.1.5,None,2024-10-08 13h04.56.951059 +0530
168,0,168,0,409.7391863,,409.6856745,10,409.7391863,409.7391863,0.0366471,411.5498237,[0.14444444444444443],[0.22592592592592592],[1],[0],[0],,1.827722,,1,2024-10-08_13h04.47.628,VisualSearchExperiment,2024.1.5,None,2024-10-08 13h04.56.951059 +0530
169,0,169,0,411.5762956,,411.5529032,5,411.5762956,411.5762956,0.0163923,414.2331044,[0.23703703703703705],[0.3638888888888889],[1],[0],[0],,2.6640385,,1,2024-10-08_13h04.47.628,VisualSearchExperiment,2024.1.5,None,2024-10-08 13h04.56.951059 +0530
170,0,170,0,414.274766,,414.2359206,10,414.274766,414.274766,0.0281521,416.0993743,[0.21481481481481482],[0.2638888888888889],[1],[0],[0],,1.8355061,,1,2024-10-08_13h04.47.628,VisualSearchExperiment,2024.1.5,None,2024-10-08 13h04.56.951059 +0530
171,0,171,0,416.1245949,,416.1021766,5,416.1245949,416.1245949,0.0157708,418.2164484,[-0.30648148148148147],[-0.3509259259259259],[1],[0],[0],,2.0986635,,1,2024-10-08_13h04.47.628,VisualSearchExperiment,2024.1.5,None,2024-10-08 13h04.56.951059 +0530
172,0,172,0,418.2457169,,418.2197839,5,418.2457169,418.2457169,0.018923,420.3504999,[0.2611111111111111],[-0.1675925925925926],[1],[0],[0],,2.1118598,,1,2024-10-08_13h04.47.628,VisualSearchExperiment,2024.1.5,None,2024-10-08 13h04.56.951059 +0530
173,0,173,0,420.3996146,,420.353358,10,420.3996146,420.3996146,0.034502,421.8995447,[0.23148148148148148],[0.025],[1],[0],[0],,1.5118311,,1,2024-10-08_13h04.47.628,VisualSearchExperiment,2024.1.5,None,2024-10-08 13h04.56.951059 +0530
174,0,174,0,421.948181,,421.9030848,10,421.948181,421.948181,0.0328971,423.7000277,[-0.29444444444444445],[-0.09259259259259259],[1],[0],[0],,1.7641395,,1,2024-10-08_13h04.47.628,VisualSearchExperiment,2024.1.5,None,2024-10-08 13h04.56.951059 +0530
175,0,175,0,423.7255747,,423.7027807,5,423.7255747,423.7255747,0.0164466,425.4498858,[0.05925925925925926],[-0.12314814814814815],[1],[0],[0],,1.7308299,,1,2024-10-08_13h04.47.628,VisualSearchExperiment,2024.1.5,None,2024-10-08 13h04.56.951059 +0530
176,0,176,0,425.4980201,,425.4528801,10,425.4980201,425.4980201,0.0330701,427.3496536,[-0.17037037037037037],[0.025],[1],[0],[0],,1.8638982,,1,2024-10-08_13h04.47.628,VisualSearchExperiment,2024.1.5,None,2024-10-08 13h04.56.951059 +0530
177,0,177,0,427.3737841,,427.3524589,5,427.3737841,427.3737841,0.0148221,428.9168777,[-0.4101851851851852],[0.20277777777777778],[1],[0],[0],,1.5497352,,1,2024-10-08_13h04.47.628,VisualSearchExperiment,2024.1.5,None,2024-10-08 13h04.56.951059 +0530
178,0,178,0,428.9617193,,428.9197784,10,428.9617193,428.9617193,0.0302335,431.2168915,[0.032407407407407406],[-0.3907407407407407],[1],[0],[0],,2.2669821,,1,2024-10-08_13h04.47.628,VisualSearchExperiment,2024.1.5,None,2024-10-08 13h04.56.951059 +0530
179,0,179,0,431.2702041,,431.2214459,10,431.2702041,431.2702041,0.0354282,433.4496618,[-0.4675925925925926],[-0.3296296296296296],[1],[0],[0],,2.1936412,,1,2024-10-08_13h04.47.628,VisualSearchExperiment,2024.1.5,None,2024-10-08 13h04.56.951059 +0530
180,0,180,0,433.476755,,433.452439,5,433.476755,433.476755,0.0160313,436.0998854,[0.25],[-0.4583333333333333],[1],[0],[0],,2.631596,,1,2024-10-08_13h04.47.628,VisualSearchExperiment,2024.1.5,None,2024-10-08 13h04.56.951059 +0530
181,0,181,0,436.1255878,,436.1027261,5,436.1255878,436.1255878,0.0164631,438.7334079,[-0.4083333333333333],[-0.11944444444444445],[1],[0],[0],,2.614423,,1,2024-10-08_13h04.47.628,VisualSearchExperiment,2024.1.5,None,2024-10-08 13h04.56.951059 +0530
182,0,182,0,438.7602977,,438.7377586,5,438.7602977,438.7602977,0.0163651,440.8328715,[-0.24444444444444444],[-0.37222222222222223],[1],[0],[0],,2.0793871,,1,2024-10-08_13h04.47.628,VisualSearchExperiment,2024.1.5,None,2024-10-08 13h04.56.951059 +0530
183,0,183,0,440.8596964,,440.8357043,5,440.8596964,440.8596964,0.0173382,442.5166074,[-0.5018518518518519],[-0.4074074074074074],[1],[0],[0],,1.6636833,,1,2024-10-08_13h04.47.628,VisualSearchExperiment,2024.1.5,None,2024-10-08 13h04.56.951059 +0530
184,0,184,0,442.5426846,,442.5202473,5,442.5426846,442.5426846,0.015033,443.9997653,[-0.11203703703703703],[-0.38425925925925924],[1],[0],[0],,1.4648418,,1,2024-10-08_13h04.47.628,VisualSearchExperiment,2024.1.5,None,2024-10-08 13h04.56.951059 +0530
185,0,185,0,444.0245959,,444.0029762,5,444.0245959,444.0245959,0.015143,445.5674368,[0.32314814814814813],[-0.31203703703703706],[1],[0],[0],,1.5496711,,1,2024-10-08_13h04.47.628,VisualSearchExperiment,2024.1.5,None,2024-10-08 13h04.56.951059 +0530
186,0,186,0,445.5930909,,445.5708993,5,445.5930909,445.5930909,0.0151189,447.3500655,[0.4],[-0.44166666666666665],[1],[0],[0],,1.7641458,,1,2024-10-08_13h04.47.628,VisualSearchExperiment,2024.1.5,None,2024-10-08 13h04.56.951059 +0530
187,0,187,0,447.4050211,,447.3541136,10,447.4050211,447.4050211,0.0363959,449.0501152,[0.22685185185185186],[-0.37962962962962965],[1],[0],[0],,1.6597656,,1,2024-10-08_13h04.47.628,VisualSearchExperiment,2024.1.5,None,2024-10-08 13h04.56.951059 +0530
188,0,188,0,449.0780692,,449.0539956,5,449.0780692,449.0780692,0.0166028,452.9336048,[-0.4074074074074074],[0.45740740740740743],[1],[0],[0],,3.8630443,,1,2024-10-08_13h04.47.628,VisualSearchExperiment,2024.1.5,None,2024-10-08 13h04.56.951059 +0530
189,0,189,0,452.9869916,,452.9365523,10,452.9869916,452.9869916,0.0385148,454.2666397,[-0.24444444444444444],[0.39351851851851855],[1],[0],[0],,1.2917529,,1,2024-10-08_13h04.47.628,VisualSearchExperiment,2024.1.5,None,2024-10-08 13h04.56.951059 +0530
190,0,190,0,454.3148616,,454.270892,10,454.3148616,454.3148616,0.0329712,456.6010342,[0.31203703703703706],[-0.33611111111111114],[1],[0],[0],,2.2977337,,1,2024-10-08_13h04.47.628,VisualSearchExperiment,2024.1.5,None,2024-10-08 13h04.56.951059 +0530
191,0,191,0,456.6556873,,456.6045187,10,456.6556873,456.6556873,0.0385815,458.2834917,[-0.2037037037037037],[-0.021296296296296296],[1],[0],[0],,1.6405228,,1,2024-10-08_13h04.47.628,VisualSearchExperiment,2024.1.5,None,2024-10-08 13h04.56.951059 +0530
192,0,192,0,458.3093782,,458.2869652,5,458.3093782,458.3093782,0.01582,460.1839293,[-0.12222222222222222],[-0.44351851851851853],[1],[0],[0],,1.8811483,,1,2024-10-08_13h04.47.628,VisualSearchExperiment,2024.1.5,None,2024-10-08 13h04.56.951059 +0530
193,0,193,0,460.2119868,,460.1878812,5,460.2119868,460.2119868,0.0168124,462.1332075,[-0.4675925925925926],[0.19722222222222222],[1],[0],[0],,1.9288514,,1,2024-10-08_13h04.47.628,VisualSearchExperiment,2024.1.5,None,2024-10-08 13h04.56.951059 +0530
194,0,194,0,462.1605521,,462.1361616,5,462.1605521,462.1605521,0.0164466,464.0170926,[-0.2222222222222222],[-0.32222222222222224],[1],[0],[0],,1.8647194,,1,2024-10-08_13h04.47.628,VisualSearchExperiment,2024.1.5,None,2024-10-08 13h04.56.951059 +0530
195,0,195,0,464.0726117,,464.0202123,10,464.0726117,464.0726117,0.0358089,466.1999323,[-0.3138888888888889],[-0.462037037037037],[1],[0],[0],,2.1443289,,1,2024-10-08_13h04.47.628,VisualSearchExperiment,2024.1.5,None,2024-10-08 13h04.56.951059 +0530
196,0,196,0,466.2498593,,466.2048007,10,466.2498593,466.2498593,0.0337755,468.916909,[-0.08518518518518518],[0.14351851851851852],[1],[0],[0],,2.6785351,,1,2024-10-08_13h04.47.628,VisualSearchExperiment,2024.1.5,None,2024-10-08 13h04.56.951059 +0530
197,0,197,0,468.9730928,,468.9217309,10,468.9730928,468.9730928,0.0370731,473.9174786,[0.41944444444444445],[0.362962962962963],[1],[0],[0],,4.9592564,,1,2024-10-08_13h04.47.628,VisualSearchExperiment,2024.1.5,None,2024-10-08 13h04.56.951059 +0530
198,0,198,0,473.9461579,,473.9213208,5,473.9461579,473.9461579,0.0174275,475.8840799,[0.025],[-0.3333333333333333],[1],[0],[0],,1.9456355,,1,2024-10-08_13h04.47.628,VisualSearchExperiment,2024.1.5,None,2024-10-08 13h04.56.951059 +0530
199,0,199,0,475.9134195,,475.888553,5,475.9134195,475.9134195,0.0182374,478.6166171,[-0.29074074074074074],[-0.337037037037037],[1],[0],[0],,2.7099556,,1,2024-10-08_13h04.47.628,VisualSearchExperiment,2024.1.5,None,2024-10-08 13h04.56.951059 +0530
