thisN,thisTrialN,thisRepN,mouse.x,mouse.y,mouse.leftButton,mouse.midButton,mouse.rightButton,mouse.time,trials.thisRepN,trials.thisTrialN,trials.thisN,trials.thisIndex,thisRow.t,notes,num_distr,trial.started,fixation.started,target.started,mouse.started,trial.stopped,trials.mouse.x,trials.mouse.y,trials.mouse.leftButton,trials.mouse.midButton,trials.mouse.rightButton,trials.mouse.time,session,date,expName,psychopyVersion,frameRate,expStart
0,0,0,[0.15666666666666668],[0.33666666666666667],[1],[0],[0],1.884628609,,0,0,0,0.062484052,,5,0.040888388,0.062484052,0.062484052,0.040584866,1.925999045,[0.15666666666666668],[0.33666666666666667],[1],[0],[0],1.884628609,1,2024-10-09_18h32.51.122,VISUALSEARCH,2024.2.1,42.04077774,2024-10-09 18h33.04.014668 +0530
1,0,1,[-0.13],[-0.21833333333333332],[1],[0],[0],1.261025697,,0,1,0,1.954403958,,5,1.942372477,1.954403958,1.954403958,0.016166049,3.203893055,[-0.13],[-0.21833333333333332],[1],[0],[0],1.261025697,1,2024-10-09_18h32.51.122,VISUALSEARCH,2024.2.1,42.04077774,2024-10-09 18h33.04.014668 +0530
2,0,2,[0.44166666666666665],[-0.39],[1],[0],[0],2.167170515,,0,2,0,3.247719051,,10,3.233012301,3.247719051,3.247719051,0.028924168,5.400755464,[0.44166666666666665],[-0.39],[1],[0],[0],2.167170515,1,2024-10-09_18h32.51.122,VISUALSEARCH,2024.2.1,42.04077774,2024-10-09 18h33.04.014668 +0530
3,0,3,[-0.29333333333333333],[-0.2866666666666667],[1],[0],[0],4.072226131,,0,3,0,5.427682736,,5,5.417674136,5.427682736,5.427682736,0.016745192,9.490345136,[-0.29333333333333333],[-0.2866666666666667],[1],[0],[0],4.072226131,1,2024-10-09_18h32.51.122,VISUALSEARCH,2024.2.1,42.04077774,2024-10-09 18h33.04.014668 +0530
4,0,4,[-0.3933333333333333],[0.025],[1],[0],[0],1.722808649,,0,4,0,9.532864054,,10,9.51772365,9.532864054,9.532864054,0.027246924,11.24093202,[-0.3933333333333333],[0.025],[1],[0],[0],1.722808649,1,2024-10-09_18h32.51.122,VISUALSEARCH,2024.2.1,42.04077774,2024-10-09 18h33.04.014668 +0530
5,0,5,[0.37833333333333335],[-0.18166666666666667],[1],[0],[0],1.539755604,,0,5,0,11.26645765,,5,11.25583989,11.26645765,11.26645765,0.014749935,12.79602368,[0.37833333333333335],[-0.18166666666666667],[1],[0],[0],1.539755604,1,2024-10-09_18h32.51.122,VISUALSEARCH,2024.2.1,42.04077774,2024-10-09 18h33.04.014668 +0530
6,0,6,[0.30666666666666664],[-0.45666666666666667],[1],[0],[0],3.289866275,,0,6,0,12.83903728,,10,12.82412206,12.83903728,12.83903728,0.027969293,16.11439545,[0.30666666666666664],[-0.45666666666666667],[1],[0],[0],3.289866275,1,2024-10-09_18h32.51.122,VISUALSEARCH,2024.2.1,42.04077774,2024-10-09 18h33.04.014668 +0530
7,0,7,[0.13333333333333333],[-0.13],[1],[0],[0],1.874093417,,0,7,0,16.1404116,,5,16.13003099,16.1404116,16.1404116,0.015478265,18.00456866,[0.13333333333333333],[-0.13],[1],[0],[0],1.874093417,1,2024-10-09_18h32.51.122,VISUALSEARCH,2024.2.1,42.04077774,2024-10-09 18h33.04.014668 +0530
8,0,8,[-0.3883333333333333],[-0.4716666666666667],[1],[0],[0],2.297437823,,0,8,0,18.02862114,,5,18.01906382,18.02862114,18.02862114,0.014361414,20.31690623,[-0.3883333333333333],[-0.4716666666666667],[1],[0],[0],2.297437823,1,2024-10-09_18h32.51.122,VISUALSEARCH,2024.2.1,42.04077774,2024-10-09 18h33.04.014668 +0530
9,0,9,[-0.043333333333333335],[0.49166666666666664],[1],[0],[0],2.12586383,,0,9,0,20.34155268,,5,20.33167701,20.34155268,20.34155268,0.014643076,22.45811831,[-0.043333333333333335],[0.49166666666666664],[1],[0],[0],2.12586383,1,2024-10-09_18h32.51.122,VISUALSEARCH,2024.2.1,42.04077774,2024-10-09 18h33.04.014668 +0530
10,0,10,[-0.26],[0.32666666666666666],[1],[0],[0],2.575557832,,0,10,0,22.50054123,,10,22.48563342,22.50054123,22.50054123,0.027338419,25.0616588,[-0.26],[0.32666666666666666],[1],[0],[0],2.575557832,1,2024-10-09_18h32.51.122,VISUALSEARCH,2024.2.1,42.04077774,2024-10-09 18h33.04.014668 +0530
11,0,11,[0.43],[0.205],[1],[0],[0],1.585940103,,0,11,0,25.10456369,,10,25.08993115,25.10456369,25.10456369,0.02808089,26.67678068,[0.43],[0.205],[1],[0],[0],1.585940103,1,2024-10-09_18h32.51.122,VISUALSEARCH,2024.2.1,42.04077774,2024-10-09 18h33.04.014668 +0530
12,0,12,[-0.1],[0.09666666666666666],[1],[0],[0],2.183710228,,0,12,0,26.70248667,,5,26.69155528,26.70248667,26.70248667,0.014511199,28.87567125,[-0.1],[0.09666666666666666],[1],[0],[0],2.183710228,1,2024-10-09_18h32.51.122,VISUALSEARCH,2024.2.1,42.04077774,2024-10-09 18h33.04.014668 +0530
13,0,13,[-0.145],[0.22833333333333333],[1],[0],[0],1.452960148,,0,13,0,28.90181476,,5,28.89104617,28.90181476,28.90181476,0.015240473,30.34452152,[-0.145],[0.22833333333333333],[1],[0],[0],1.452960148,1,2024-10-09_18h32.51.122,VISUALSEARCH,2024.2.1,42.04077774,2024-10-09 18h33.04.014668 +0530
14,0,14,[-0.08166666666666667],[0.11666666666666667],[1],[0],[0],1.662494317,,0,14,0,30.39129144,,10,30.37542634,30.39129144,30.39129144,0.03074568,32.03845762,[-0.08166666666666667],[0.11666666666666667],[1],[0],[0],1.662494317,1,2024-10-09_18h32.51.122,VISUALSEARCH,2024.2.1,42.04077774,2024-10-09 18h33.04.014668 +0530
15,0,15,[-0.3616666666666667],[0.49166666666666664],[1],[0],[0],1.736227638,,0,15,0,32.08202989,,10,32.06704683,32.08202989,32.08202989,0.028395719,33.80368561,[-0.3616666666666667],[0.49166666666666664],[1],[0],[0],1.736227638,1,2024-10-09_18h32.51.122,VISUALSEARCH,2024.2.1,42.04077774,2024-10-09 18h33.04.014668 +0530
16,0,16,[-0.1],[0.415],[1],[0],[0],1.628239216,,0,16,0,33.84787504,,10,33.83280832,33.84787504,33.84787504,0.028939929,35.46143721,[-0.1],[0.415],[1],[0],[0],1.628239216,1,2024-10-09_18h32.51.122,VISUALSEARCH,2024.2.1,42.04077774,2024-10-09 18h33.04.014668 +0530
17,0,17,[0.1],[0.058333333333333334],[1],[0],[0],1.281118083,,0,17,0,35.50511014,,10,35.48959064,35.50511014,35.50511014,0.028012867,36.7711771,[0.1],[0.058333333333333334],[1],[0],[0],1.281118083,1,2024-10-09_18h32.51.122,VISUALSEARCH,2024.2.1,42.04077774,2024-10-09 18h33.04.014668 +0530
18,0,18,[-0.045],[0.3283333333333333],[1],[0],[0],1.178710135,,0,18,0,36.81466808,,10,36.79943191,36.81466808,36.81466808,0.028094756,37.97851467,[-0.045],[0.3283333333333333],[1],[0],[0],1.178710135,1,2024-10-09_18h32.51.122,VISUALSEARCH,2024.2.1,42.04077774,2024-10-09 18h33.04.014668 +0530
19,0,19,[0.215],[0.45],[1],[0],[0],6.927228875,,0,19,0,38.02284562,,10,38.00733715,38.02284562,38.02284562,0.028660932,44.93523886,[0.215],[0.45],[1],[0],[0],6.927228875,1,2024-10-09_18h32.51.122,VISUALSEARCH,2024.2.1,42.04077774,2024-10-09 18h33.04.014668 +0530
20,0,20,[0.2966666666666667],[-0.3433333333333333],[1],[0],[0],2.126021148,,0,20,0,44.97948566,,10,44.96446783,44.97948566,44.97948566,0.028953,47.09086659,[0.2966666666666667],[-0.3433333333333333],[1],[0],[0],2.126021148,1,2024-10-09_18h32.51.122,VISUALSEARCH,2024.2.1,42.04077774,2024-10-09 18h33.04.014668 +0530
21,0,21,[-0.016666666666666666],[-0.05333333333333334],[1],[0],[0],1.409887022,,0,21,0,47.11771606,,5,47.10631642,47.11771606,47.11771606,0.015295455,48.51659805,[-0.016666666666666666],[-0.05333333333333334],[1],[0],[0],1.409887022,1,2024-10-09_18h32.51.122,VISUALSEARCH,2024.2.1,42.04077774,2024-10-09 18h33.04.014668 +0530
22,0,22,[0.09833333333333333],[-0.15166666666666667],[1],[0],[0],1.518411333,,0,22,0,48.5419483,,5,48.53031921,48.5419483,48.5419483,0.013596053,50.04947347,[0.09833333333333333],[-0.15166666666666667],[1],[0],[0],1.518411333,1,2024-10-09_18h32.51.122,VISUALSEARCH,2024.2.1,42.04077774,2024-10-09 18h33.04.014668 +0530
23,0,23,[0.16666666666666666],[-0.075],[1],[0],[0],1.102193214,,0,23,0,50.09497585,,10,50.07969255,50.09497585,50.09497585,0.029833334,51.18252346,[0.16666666666666666],[-0.075],[1],[0],[0],1.102193214,1,2024-10-09_18h32.51.122,VISUALSEARCH,2024.2.1,42.04077774,2024-10-09 18h33.04.014668 +0530
24,0,24,[0.27],[-0.16],[1],[0],[0],1.647901844,,0,24,0,51.22529535,,10,51.20968862,51.22529535,51.22529535,0.026980935,52.85805255,[0.27],[-0.16],[1],[0],[0],1.647901844,1,2024-10-09_18h32.51.122,VISUALSEARCH,2024.2.1,42.04077774,2024-10-09 18h33.04.014668 +0530
25,0,25,[0.3283333333333333],[0.16833333333333333],[1],[0],[0],5.69300199,,0,25,0,52.90189885,,10,52.8861525,52.90189885,52.90189885,0.027977283,58.57970179,[0.3283333333333333],[0.16833333333333333],[1],[0],[0],5.69300199,1,2024-10-09_18h32.51.122,VISUALSEARCH,2024.2.1,42.04077774,2024-10-09 18h33.04.014668 +0530
26,0,26,[-0.32666666666666666],[0.058333333333333334],[1],[0],[0],1.794846574,,0,26,0,58.62235843,,10,58.60756166,58.62235843,58.62235843,0.027696817,60.40292839,[-0.32666666666666666],[0.058333333333333334],[1],[0],[0],1.794846574,1,2024-10-09_18h32.51.122,VISUALSEARCH,2024.2.1,42.04077774,2024-10-09 18h33.04.014668 +0530
27,0,27,[0.3983333333333333],[-0.155],[1],[0],[0],1.640423405,,0,27,0,60.44744457,,10,60.43163387,60.44744457,60.44744457,0.028507038,62.07252084,[0.3983333333333333],[-0.155],[1],[0],[0],1.640423405,1,2024-10-09_18h32.51.122,VISUALSEARCH,2024.2.1,42.04077774,2024-10-09 18h33.04.014668 +0530
28,0,28,[0.3283333333333333],[-0.18166666666666667],[1],[0],[0],1.312444902,,0,28,0,62.09757864,,5,62.08670778,62.09757864,62.09757864,0.014021029,63.3995898,[0.3283333333333333],[-0.18166666666666667],[1],[0],[0],1.312444902,1,2024-10-09_18h32.51.122,VISUALSEARCH,2024.2.1,42.04077774,2024-10-09 18h33.04.014668 +0530
29,0,29,[0.3],[-0.125],[1],[0],[0],1.508516317,,0,29,0,63.44362561,,10,63.42807491,63.44362561,63.44362561,0.02833869,64.93702582,[0.3],[-0.125],[1],[0],[0],1.508516317,1,2024-10-09_18h32.51.122,VISUALSEARCH,2024.2.1,42.04077774,2024-10-09 18h33.04.014668 +0530
30,0,30,[0.295],[-0.06],[1],[0],[0],1.206937183,,0,30,0,64.9809747,,10,64.96547308,64.9809747,64.9809747,0.028286907,66.17280937,[0.295],[-0.06],[1],[0],[0],1.206937183,1,2024-10-09_18h32.51.122,VISUALSEARCH,2024.2.1,42.04077774,2024-10-09 18h33.04.014668 +0530
31,0,31,[0.22166666666666668],[-0.06666666666666667],[1],[0],[0],1.187751436,,0,31,0,66.21601215,,10,66.20184699,66.21601215,66.21601215,0.028880362,67.38998273,[0.22166666666666668],[-0.06666666666666667],[1],[0],[0],1.187751436,1,2024-10-09_18h32.51.122,VISUALSEARCH,2024.2.1,42.04077774,2024-10-09 18h33.04.014668 +0530
32,0,32,[-0.22],[0.25666666666666665],[1],[0],[0],2.044012212,,0,32,0,67.43319982,,10,67.41768578,67.43319982,67.43319982,0.027538807,69.46212283,[-0.22],[0.25666666666666665],[1],[0],[0],2.044012212,1,2024-10-09_18h32.51.122,VISUALSEARCH,2024.2.1,42.04077774,2024-10-09 18h33.04.014668 +0530
33,0,33,[-0.20166666666666666],[0.3416666666666667],[1],[0],[0],2.953559597,,0,33,0,69.50511776,,10,69.49068023,69.50511776,69.50511776,0.028399518,72.44466414,[-0.20166666666666666],[0.3416666666666667],[1],[0],[0],2.953559597,1,2024-10-09_18h32.51.122,VISUALSEARCH,2024.2.1,42.04077774,2024-10-09 18h33.04.014668 +0530
34,0,34,[-0.3383333333333333],[-0.3016666666666667],[1],[0],[0],1.709043951,,0,34,0,72.49326878,,10,72.47725636,72.49326878,72.49326878,0.032374499,74.18666923,[-0.3383333333333333],[-0.3016666666666667],[1],[0],[0],1.709043951,1,2024-10-09_18h32.51.122,VISUALSEARCH,2024.2.1,42.04077774,2024-10-09 18h33.04.014668 +0530
35,0,35,[0.4633333333333333],[-0.20666666666666667],[1],[0],[0],1.919902636,,0,35,0,74.22999348,,10,74.21388322,74.22999348,74.22999348,0.027048761,76.13416895,[0.4633333333333333],[-0.20666666666666667],[1],[0],[0],1.919902636,1,2024-10-09_18h32.51.122,VISUALSEARCH,2024.2.1,42.04077774,2024-10-09 18h33.04.014668 +0530
36,0,36,[-0.245],[-0.008333333333333333],[1],[0],[0],1.176607479,,0,36,0,76.15911874,,5,76.14835263,76.15911874,76.15911874,0.014021742,77.32540934,[-0.245],[-0.008333333333333333],[1],[0],[0],1.176607479,1,2024-10-09_18h32.51.122,VISUALSEARCH,2024.2.1,42.04077774,2024-10-09 18h33.04.014668 +0530
37,0,37,[0.16],[-0.005],[1],[0],[0],1.37713655,,0,37,0,77.35013652,,5,77.33937255,77.35013652,77.35013652,0.013823511,78.7171469,[0.16],[-0.005],[1],[0],[0],1.37713655,1,2024-10-09_18h32.51.122,VISUALSEARCH,2024.2.1,42.04077774,2024-10-09 18h33.04.014668 +0530
38,0,38,[-0.3016666666666667],[-0.015],[1],[0],[0],1.365622646,,0,38,0,78.7420986,,5,78.7323048,78.7420986,78.7420986,0.014946729,80.09839527,[-0.3016666666666667],[-0.015],[1],[0],[0],1.365622646,1,2024-10-09_18h32.51.122,VISUALSEARCH,2024.2.1,42.04077774,2024-10-09 18h33.04.014668 +0530
39,0,39,[0.38],[0.33166666666666667],[1],[0],[0],1.411091547,,0,39,0,80.12377876,,5,80.11270649,80.12377876,80.12377876,0.014181135,81.52433436,[0.38],[0.33166666666666667],[1],[0],[0],1.411091547,1,2024-10-09_18h32.51.122,VISUALSEARCH,2024.2.1,42.04077774,2024-10-09 18h33.04.014668 +0530
40,0,40,[0.07333333333333333],[-0.08166666666666667],[1],[0],[0],1.364781544,,0,40,0,81.57158112,,5,81.56091252,81.57158112,81.57158112,0.036444909,82.92617377,[0.07333333333333333],[-0.08166666666666667],[1],[0],[0],1.364781544,1,2024-10-09_18h32.51.122,VISUALSEARCH,2024.2.1,42.04077774,2024-10-09 18h33.04.014668 +0530
41,0,41,[-0.415],[-0.2833333333333333],[1],[0],[0],1.445973634,,0,41,0,82.95184077,,5,82.94126326,82.95184077,82.95184077,0.014963818,84.38770466,[-0.415],[-0.2833333333333333],[1],[0],[0],1.445973634,1,2024-10-09_18h32.51.122,VISUALSEARCH,2024.2.1,42.04077774,2024-10-09 18h33.04.014668 +0530
42,0,42,[0.4483333333333333],[-0.17833333333333334],[1],[0],[0],4.403073999,,0,42,0,84.41249495,,5,84.40224426,84.41249495,84.41249495,0.014405017,88.80578717,[0.4483333333333333],[-0.17833333333333334],[1],[0],[0],4.403073999,1,2024-10-09_18h32.51.122,VISUALSEARCH,2024.2.1,42.04077774,2024-10-09 18h33.04.014668 +0530
43,0,43,[-0.17833333333333334],[-0.32],[1],[0],[0],1.688453234,,0,43,0,88.83144839,,5,88.82134805,88.83144839,88.83144839,0.015416691,90.51017691,[-0.17833333333333334],[-0.32],[1],[0],[0],1.688453234,1,2024-10-09_18h32.51.122,VISUALSEARCH,2024.2.1,42.04077774,2024-10-09 18h33.04.014668 +0530
44,0,44,[-0.06166666666666667],[0.41833333333333333],[1],[0],[0],1.612680834,,0,44,0,90.55289288,,10,90.53825188,90.55289288,90.55289288,0.027947804,92.15147052,[-0.06166666666666667],[0.41833333333333333],[1],[0],[0],1.612680834,1,2024-10-09_18h32.51.122,VISUALSEARCH,2024.2.1,42.04077774,2024-10-09 18h33.04.014668 +0530
45,0,45,[-0.058333333333333334],[0.2833333333333333],[1],[0],[0],1.053734239,,0,45,0,92.19400939,,10,92.17934601,92.19400939,92.19400939,0.02768249,93.23369139,[-0.058333333333333334],[0.2833333333333333],[1],[0],[0],1.053734239,1,2024-10-09_18h32.51.122,VISUALSEARCH,2024.2.1,42.04077774,2024-10-09 18h33.04.014668 +0530
46,0,46,[0.10333333333333333],[-0.38166666666666665],[1],[0],[0],2.055286823,,0,46,0,93.27788382,,10,93.26225926,93.27788382,93.27788382,0.028344654,95.31811026,[0.10333333333333333],[-0.38166666666666665],[1],[0],[0],2.055286823,1,2024-10-09_18h32.51.122,VISUALSEARCH,2024.2.1,42.04077774,2024-10-09 18h33.04.014668 +0530
47,0,47,[0.24666666666666667],[0.07],[1],[0],[0],1.210040263,,0,47,0,95.34375117,,5,95.33277012,95.34375117,95.34375117,0.014503859,96.54323118,[0.24666666666666667],[0.07],[1],[0],[0],1.210040263,1,2024-10-09_18h32.51.122,VISUALSEARCH,2024.2.1,42.04077774,2024-10-09 18h33.04.014668 +0530
48,0,48,[-0.375],[0.11666666666666667],[1],[0],[0],1.305317466,,0,48,0,96.58752238,,10,96.57162504,96.58752238,96.58752238,0.028260491,97.8774493,[-0.375],[0.11666666666666667],[1],[0],[0],1.305317466,1,2024-10-09_18h32.51.122,VISUALSEARCH,2024.2.1,42.04077774,2024-10-09 18h33.04.014668 +0530
49,0,49,[0.023333333333333334],[0.23166666666666666],[1],[0],[0],1.065807886,,0,49,0,97.90254756,,5,97.89230761,97.90254756,97.90254756,0.014673322,98.95865319,[0.023333333333333334],[0.23166666666666666],[1],[0],[0],1.065807886,1,2024-10-09_18h32.51.122,VISUALSEARCH,2024.2.1,42.04077774,2024-10-09 18h33.04.014668 +0530
50,0,50,[0.043333333333333335],[-0.07166666666666667],[1],[0],[0],1.202121944,,0,50,0,98.98420864,,5,98.97355424,98.98420864,98.98420864,0.014771274,100.1761179,[0.043333333333333335],[-0.07166666666666667],[1],[0],[0],1.202121944,1,2024-10-09_18h32.51.122,VISUALSEARCH,2024.2.1,42.04077774,2024-10-09 18h33.04.014668 +0530
51,0,51,[-0.085],[0.20166666666666666],[1],[0],[0],1.465374928,,0,51,0,100.2013679,,5,100.1910555,100.2013679,100.2013679,0.014787048,101.6568273,[-0.085],[0.20166666666666666],[1],[0],[0],1.465374928,1,2024-10-09_18h32.51.122,VISUALSEARCH,2024.2.1,42.04077774,2024-10-09 18h33.04.014668 +0530
52,0,52,[0.27666666666666667],[0.49],[1],[0],[0],4.317727862,,0,52,0,101.699735,,10,101.6843757,101.699735,101.699735,0.027415243,106.0025342,[0.27666666666666667],[0.49],[1],[0],[0],4.317727862,1,2024-10-09_18h32.51.122,VISUALSEARCH,2024.2.1,42.04077774,2024-10-09 18h33.04.014668 +0530
53,0,53,[0.18166666666666667],[0.10833333333333334],[1],[0],[0],1.381091757,,0,53,0,106.0280633,,5,106.0169704,106.0280633,106.0280633,0.014281196,107.3984561,[0.18166666666666667],[0.10833333333333334],[1],[0],[0],1.381091757,1,2024-10-09_18h32.51.122,VISUALSEARCH,2024.2.1,42.04077774,2024-10-09 18h33.04.014668 +0530
54,0,54,[0.24333333333333335],[0.11833333333333333],[1],[0],[0],1.245680963,,0,54,0,107.4236465,,5,107.4127376,107.4236465,107.4236465,0.014152592,108.6588321,[0.24333333333333335],[0.11833333333333333],[1],[0],[0],1.245680963,1,2024-10-09_18h32.51.122,VISUALSEARCH,2024.2.1,42.04077774,2024-10-09 18h33.04.014668 +0530
55,0,55,[-0.23833333333333334],[0.15],[1],[0],[0],1.544656062,,0,55,0,108.6848047,,5,108.6738836,108.6848047,108.6848047,0.014921691,110.2190634,[-0.23833333333333334],[0.15],[1],[0],[0],1.544656062,1,2024-10-09_18h32.51.122,VISUALSEARCH,2024.2.1,42.04077774,2024-10-09 18h33.04.014668 +0530
56,0,56,[0.31833333333333336],[0.155],[1],[0],[0],1.696280666,,0,56,0,110.2445419,,5,110.2342746,110.2445419,110.2445419,0.015085559,111.9311457,[0.31833333333333336],[0.155],[1],[0],[0],1.696280666,1,2024-10-09_18h32.51.122,VISUALSEARCH,2024.2.1,42.04077774,2024-10-09 18h33.04.014668 +0530
57,0,57,[0.15],[0.16833333333333333],[1],[0],[0],1.170148527,,0,57,0,111.9741919,,10,111.9589041,111.9741919,111.9741919,0.027537697,113.129497,[0.15],[0.16833333333333333],[1],[0],[0],1.170148527,1,2024-10-09_18h32.51.122,VISUALSEARCH,2024.2.1,42.04077774,2024-10-09 18h33.04.014668 +0530
58,0,58,[0.17833333333333334],[0.27666666666666667],[1],[0],[0],1.135042799,,0,58,0,113.1565694,,5,113.1451765,113.1565694,113.1565694,0.015502274,114.2809519,[0.17833333333333334],[0.27666666666666667],[1],[0],[0],1.135042799,1,2024-10-09_18h32.51.122,VISUALSEARCH,2024.2.1,42.04077774,2024-10-09 18h33.04.014668 +0530
59,0,59,[0.28833333333333333],[0.21833333333333332],[1],[0],[0],1.238896091,,0,59,0,114.3235445,,10,114.307869,114.3235445,114.3235445,0.026757205,115.5471709,[0.28833333333333333],[0.21833333333333332],[1],[0],[0],1.238896091,1,2024-10-09_18h32.51.122,VISUALSEARCH,2024.2.1,42.04077774,2024-10-09 18h33.04.014668 +0530
60,0,60,[-0.505],[-0.14833333333333334],[1],[0],[0],1.546321176,,0,60,0,115.5726528,,5,115.5614401,115.5726528,115.5726528,0.014110358,117.1082517,[-0.505],[-0.14833333333333334],[1],[0],[0],1.546321176,1,2024-10-09_18h32.51.122,VISUALSEARCH,2024.2.1,42.04077774,2024-10-09 18h33.04.014668 +0530
61,0,61,[0.23666666666666666],[-0.21833333333333332],[1],[0],[0],1.797945425,,0,61,0,117.134623,,5,117.1230405,117.134623,117.134623,0.014623352,118.9214486,[0.23666666666666666],[-0.21833333333333332],[1],[0],[0],1.797945425,1,2024-10-09_18h32.51.122,VISUALSEARCH,2024.2.1,42.04077774,2024-10-09 18h33.04.014668 +0530
62,0,62,[0.14666666666666667],[-0.03666666666666667],[1],[0],[0],0.984210401,,0,62,0,118.9657089,,10,118.9506553,118.9657089,118.9657089,0.02906483,119.9353863,[0.14666666666666667],[-0.03666666666666667],[1],[0],[0],0.984210401,1,2024-10-09_18h32.51.122,VISUALSEARCH,2024.2.1,42.04077774,2024-10-09 18h33.04.014668 +0530
63,0,63,[-0.19166666666666668],[0.32666666666666666],[1],[0],[0],1.509539921,,0,63,0,119.9791309,,10,119.9631405,119.9791309,119.9791309,0.027543806,121.4730672,[-0.19166666666666668],[0.32666666666666666],[1],[0],[0],1.509539921,1,2024-10-09_18h32.51.122,VISUALSEARCH,2024.2.1,42.04077774,2024-10-09 18h33.04.014668 +0530
64,0,64,[0.31333333333333335],[-0.36833333333333335],[1],[0],[0],1.889696004,,0,64,0,121.4995755,,5,121.488584,121.4995755,121.4995755,0.015359498,123.3787984,[0.31333333333333335],[-0.36833333333333335],[1],[0],[0],1.889696004,1,2024-10-09_18h32.51.122,VISUALSEARCH,2024.2.1,42.04077774,2024-10-09 18h33.04.014668 +0530
65,0,65,[-0.13666666666666666],[-0.018333333333333333],[1],[0],[0],1.423407805,,0,65,0,123.4217677,,10,123.4065833,123.4217677,123.4217677,0.0275347,124.8303912,[-0.13666666666666666],[-0.018333333333333333],[1],[0],[0],1.423407805,1,2024-10-09_18h32.51.122,VISUALSEARCH,2024.2.1,42.04077774,2024-10-09 18h33.04.014668 +0530
66,0,66,[-0.10166666666666667],[0.345],[1],[0],[0],1.622696354,,0,66,0,124.8788498,,10,124.862557,124.8788498,124.8788498,0.032008291,126.4857667,[-0.10166666666666667],[0.345],[1],[0],[0],1.622696354,1,2024-10-09_18h32.51.122,VISUALSEARCH,2024.2.1,42.04077774,2024-10-09 18h33.04.014668 +0530
67,0,67,[-0.23666666666666666],[0.045],[1],[0],[0],1.592807412,,0,67,0,126.5123004,,5,126.5011306,126.5123004,126.5123004,0.015202421,128.0943347,[-0.23666666666666666],[0.045],[1],[0],[0],1.592807412,1,2024-10-09_18h32.51.122,VISUALSEARCH,2024.2.1,42.04077774,2024-10-09 18h33.04.014668 +0530
68,0,68,[-0.43],[-0.46166666666666667],[1],[0],[0],1.255001451,,0,68,0,128.1196592,,5,128.108522,128.1196592,128.1196592,0.01404088,129.36399,[-0.43],[-0.46166666666666667],[1],[0],[0],1.255001451,1,2024-10-09_18h32.51.122,VISUALSEARCH,2024.2.1,42.04077774,2024-10-09 18h33.04.014668 +0530
69,0,69,[-0.023333333333333334],[-0.35333333333333333],[1],[0],[0],2.150221914,,0,69,0,129.4066869,,10,129.3919937,129.4066869,129.4066869,0.027816466,131.542642,[-0.023333333333333334],[-0.35333333333333333],[1],[0],[0],2.150221914,1,2024-10-09_18h32.51.122,VISUALSEARCH,2024.2.1,42.04077774,2024-10-09 18h33.04.014668 +0530
70,0,70,[0.40166666666666667],[-0.19166666666666668],[1],[0],[0],2.33549739,,0,70,0,131.5870334,,10,131.5712901,131.5870334,131.5870334,0.028461187,133.9072141,[0.40166666666666667],[-0.19166666666666668],[1],[0],[0],2.33549739,1,2024-10-09_18h32.51.122,VISUALSEARCH,2024.2.1,42.04077774,2024-10-09 18h33.04.014668 +0530
71,0,71,[-0.17833333333333334],[0.016666666666666666],[1],[0],[0],1.655465435,,0,71,0,133.950297,,10,133.9347313,133.950297,133.950297,0.027349668,135.5906057,[-0.17833333333333334],[0.016666666666666666],[1],[0],[0],1.655465435,1,2024-10-09_18h32.51.122,VISUALSEARCH,2024.2.1,42.04077774,2024-10-09 18h33.04.014668 +0530
72,0,72,[-0.195],[0.028333333333333332],[1],[0],[0],1.394291862,,0,72,0,135.6329368,,10,135.6171605,135.6329368,135.6329368,0.026395064,137.011845,[-0.195],[0.028333333333333332],[1],[0],[0],1.394291862,1,2024-10-09_18h32.51.122,VISUALSEARCH,2024.2.1,42.04077774,2024-10-09 18h33.04.014668 +0530
73,0,73,[-0.30666666666666664],[0.27],[1],[0],[0],1.497801322,,0,73,0,137.0554501,,10,137.0395374,137.0554501,137.0554501,0.027453084,138.5377178,[-0.30666666666666664],[0.27],[1],[0],[0],1.497801322,1,2024-10-09_18h32.51.122,VISUALSEARCH,2024.2.1,42.04077774,2024-10-09 18h33.04.014668 +0530
74,0,74,[-0.115],[0.08833333333333333],[1],[0],[0],1.562231283,,0,74,0,138.5822299,,10,138.5657495,138.5822299,138.5822299,0.027875874,140.1283936,[-0.115],[0.08833333333333333],[1],[0],[0],1.562231283,1,2024-10-09_18h32.51.122,VISUALSEARCH,2024.2.1,42.04077774,2024-10-09 18h33.04.014668 +0530
75,0,75,[0.24666666666666667],[-0.06833333333333333],[1],[0],[0],1.41992249,,0,75,0,140.1706212,,10,140.1551754,140.1706212,140.1706212,0.026606396,141.5757237,[0.24666666666666667],[-0.06833333333333333],[1],[0],[0],1.41992249,1,2024-10-09_18h32.51.122,VISUALSEARCH,2024.2.1,42.04077774,2024-10-09 18h33.04.014668 +0530
76,0,76,[0.39666666666666667],[-0.09333333333333334],[1],[0],[0],1.332393983,,0,76,0,141.6045158,,5,141.593296,141.6045158,141.6045158,0.017317738,142.9261213,[0.39666666666666667],[-0.09333333333333334],[1],[0],[0],1.332393983,1,2024-10-09_18h32.51.122,VISUALSEARCH,2024.2.1,42.04077774,2024-10-09 18h33.04.014668 +0530
77,0,77,[0.028333333333333332],[-0.27],[1],[0],[0],1.78318773,,0,77,0,142.9685473,,10,142.9539348,142.9685473,142.9685473,0.027686835,144.7374928,[0.028333333333333332],[-0.27],[1],[0],[0],1.78318773,1,2024-10-09_18h32.51.122,VISUALSEARCH,2024.2.1,42.04077774,2024-10-09 18h33.04.014668 +0530
78,0,78,[0.395],[-0.24166666666666667],[1],[0],[0],1.626090512,,0,78,0,144.7810253,,10,144.765289,144.7810253,144.7810253,0.027637419,146.3917996,[0.395],[-0.24166666666666667],[1],[0],[0],1.626090512,1,2024-10-09_18h32.51.122,VISUALSEARCH,2024.2.1,42.04077774,2024-10-09 18h33.04.014668 +0530
79,0,79,[0.43],[0.13666666666666666],[1],[0],[0],1.325096728,,0,79,0,146.4177097,,5,146.4069705,146.4177097,146.4177097,0.014995861,147.7325764,[0.43],[0.13666666666666666],[1],[0],[0],1.325096728,1,2024-10-09_18h32.51.122,VISUALSEARCH,2024.2.1,42.04077774,2024-10-09 18h33.04.014668 +0530
80,0,80,[-0.21166666666666667],[0.18833333333333332],[1],[0],[0],1.969214739,,0,80,0,147.7575027,,5,147.7469883,147.7575027,147.7575027,0.014260664,149.7166115,[-0.21166666666666667],[0.18833333333333332],[1],[0],[0],1.969214739,1,2024-10-09_18h32.51.122,VISUALSEARCH,2024.2.1,42.04077774,2024-10-09 18h33.04.014668 +0530
81,0,81,[-0.31],[0.2966666666666667],[1],[0],[0],1.090323221,,0,81,0,149.7423211,,5,149.730717,149.7423211,149.7423211,0.013967267,150.8214178,[-0.31],[0.2966666666666667],[1],[0],[0],1.090323221,1,2024-10-09_18h32.51.122,VISUALSEARCH,2024.2.1,42.04077774,2024-10-09 18h33.04.014668 +0530
82,0,82,[-0.4],[0.056666666666666664],[1],[0],[0],1.0696019,,0,82,0,150.8651607,,10,150.8500658,150.8651607,150.8651607,0.028521874,151.9202225,[-0.4],[0.056666666666666664],[1],[0],[0],1.0696019,1,2024-10-09_18h32.51.122,VISUALSEARCH,2024.2.1,42.04077774,2024-10-09 18h33.04.014668 +0530
83,0,83,[0.3883333333333333],[-0.03],[1],[0],[0],1.43808441,,0,83,0,151.9463752,,5,151.9350162,151.9463752,151.9463752,0.014633548,153.3735141,[0.3883333333333333],[-0.03],[1],[0],[0],1.43808441,1,2024-10-09_18h32.51.122,VISUALSEARCH,2024.2.1,42.04077774,2024-10-09 18h33.04.014668 +0530
84,0,84,[-0.07166666666666667],[0.23166666666666666],[1],[0],[0],1.45788356,,0,84,0,153.4170485,,10,153.4020384,153.4170485,153.4170485,0.028391775,154.8603062,[-0.07166666666666667],[0.23166666666666666],[1],[0],[0],1.45788356,1,2024-10-09_18h32.51.122,VISUALSEARCH,2024.2.1,42.04077774,2024-10-09 18h33.04.014668 +0530
85,0,85,[0.4166666666666667],[0.10833333333333334],[1],[0],[0],1.816285622,,0,85,0,154.9040072,,10,154.8884764,154.9040072,154.9040072,0.028010151,156.7053089,[0.4166666666666667],[0.10833333333333334],[1],[0],[0],1.816285622,1,2024-10-09_18h32.51.122,VISUALSEARCH,2024.2.1,42.04077774,2024-10-09 18h33.04.014668 +0530
86,0,86,[-0.06333333333333334],[-0.34],[1],[0],[0],1.383331315,,0,86,0,156.7303701,,5,156.7191035,156.7303701,156.7303701,0.013637526,158.1031198,[-0.06333333333333334],[-0.34],[1],[0],[0],1.383331315,1,2024-10-09_18h32.51.122,VISUALSEARCH,2024.2.1,42.04077774,2024-10-09 18h33.04.014668 +0530
87,0,87,[-0.165],[-0.028333333333333332],[1],[0],[0],0.989913525,,0,87,0,158.1320573,,5,158.1201931,158.1320573,158.1320573,0.016849082,159.1104931,[-0.165],[-0.028333333333333332],[1],[0],[0],0.989913525,1,2024-10-09_18h32.51.122,VISUALSEARCH,2024.2.1,42.04077774,2024-10-09 18h33.04.014668 +0530
88,0,88,[0.16],[0.04],[1],[0],[0],1.253349839,,0,88,0,159.1528855,,10,159.137834,159.1528855,159.1528855,0.027207777,160.3916564,[0.16],[0.04],[1],[0],[0],1.253349839,1,2024-10-09_18h32.51.122,VISUALSEARCH,2024.2.1,42.04077774,2024-10-09 18h33.04.014668 +0530
89,0,89,[0.49166666666666664],[0.29],[1],[0],[0],1.304859932,,0,89,0,160.4185558,,5,160.4071792,160.4185558,160.4185558,0.015336918,161.7124788,[0.49166666666666664],[0.29],[1],[0],[0],1.304859932,1,2024-10-09_18h32.51.122,VISUALSEARCH,2024.2.1,42.04077774,2024-10-09 18h33.04.014668 +0530
90,0,90,[0.12],[-0.13666666666666666],[1],[0],[0],1.982246754,,0,90,0,161.755541,,10,161.7402688,161.755541,161.755541,0.027655807,163.7229274,[0.12],[-0.13666666666666666],[1],[0],[0],1.982246754,1,2024-10-09_18h32.51.122,VISUALSEARCH,2024.2.1,42.04077774,2024-10-09 18h33.04.014668 +0530
91,0,91,[-0.44],[-0.2633333333333333],[1],[0],[0],1.581949666,,0,91,0,163.748849,,5,163.7375133,163.748849,163.748849,0.014408098,165.3199032,[-0.44],[-0.2633333333333333],[1],[0],[0],1.581949666,1,2024-10-09_18h32.51.122,VISUALSEARCH,2024.2.1,42.04077774,2024-10-09 18h33.04.014668 +0530
92,0,92,[0.46166666666666667],[-0.07166666666666667],[1],[0],[0],1.364670458,,0,92,0,165.3455341,,5,165.3348358,165.3455341,165.3455341,0.014801203,166.6999532,[0.46166666666666667],[-0.07166666666666667],[1],[0],[0],1.364670458,1,2024-10-09_18h32.51.122,VISUALSEARCH,2024.2.1,42.04077774,2024-10-09 18h33.04.014668 +0530
93,0,93,[-0.021666666666666667],[0.23333333333333334],[1],[0],[0],1.195127446,,0,93,0,166.7250876,,5,166.7148635,166.7250876,166.7250876,0.014761903,167.9103979,[-0.021666666666666667],[0.23333333333333334],[1],[0],[0],1.195127446,1,2024-10-09_18h32.51.122,VISUALSEARCH,2024.2.1,42.04077774,2024-10-09 18h33.04.014668 +0530
94,0,94,[0.018333333333333333],[-0.39],[1],[0],[0],2.004824912,,0,94,0,167.9542138,,10,167.9385862,167.9542138,167.9542138,0.028058974,169.9440471,[0.018333333333333333],[-0.39],[1],[0],[0],2.004824912,1,2024-10-09_18h32.51.122,VISUALSEARCH,2024.2.1,42.04077774,2024-10-09 18h33.04.014668 +0530
95,0,95,[0.24833333333333332],[0.36333333333333334],[1],[0],[0],1.522621737,,0,95,0,169.9876521,,10,169.9719157,169.9876521,169.9876521,0.027701462,171.4951125,[0.24833333333333332],[0.36333333333333334],[1],[0],[0],1.522621737,1,2024-10-09_18h32.51.122,VISUALSEARCH,2024.2.1,42.04077774,2024-10-09 18h33.04.014668 +0530
96,0,96,[0.11333333333333333],[-0.3933333333333333],[1],[0],[0],1.899582921,,0,96,0,171.5378728,,10,171.5221784,171.5378728,171.5378728,0.026892424,173.422184,[0.11333333333333333],[-0.3933333333333333],[1],[0],[0],1.899582921,1,2024-10-09_18h32.51.122,VISUALSEARCH,2024.2.1,42.04077774,2024-10-09 18h33.04.014668 +0530
97,0,97,[-0.15166666666666667],[-0.15333333333333332],[1],[0],[0],1.354175169,,0,97,0,173.4657458,,10,173.4498712,173.4657458,173.4657458,0.027505745,174.8044295,[-0.15166666666666667],[-0.15333333333333332],[1],[0],[0],1.354175169,1,2024-10-09_18h32.51.122,VISUALSEARCH,2024.2.1,42.04077774,2024-10-09 18h33.04.014668 +0530
98,0,98,[0.07666666666666666],[0.115],[1],[0],[0],1.158233745,,0,98,0,174.8475358,,10,174.8325461,174.8475358,174.8475358,0.027951822,175.9912122,[0.07666666666666666],[0.115],[1],[0],[0],1.158233745,1,2024-10-09_18h32.51.122,VISUALSEARCH,2024.2.1,42.04077774,2024-10-09 18h33.04.014668 +0530
99,0,99,[-0.15833333333333333],[0.025],[1],[0],[0],1.0290964,,0,99,0,176.0367575,,10,176.0198888,176.0367575,176.0367575,0.028496372,177.0499513,[-0.15833333333333333],[0.025],[1],[0],[0],1.0290964,1,2024-10-09_18h32.51.122,VISUALSEARCH,2024.2.1,42.04077774,2024-10-09 18h33.04.014668 +0530
100,0,100,[0.4533333333333333],[-0.32],[1],[0],[0],1.760943961,,0,100,0,177.0936038,,10,177.0774924,177.0936038,177.0936038,0.027166637,178.8388354,[0.4533333333333333],[-0.32],[1],[0],[0],1.760943961,1,2024-10-09_18h32.51.122,VISUALSEARCH,2024.2.1,42.04077774,2024-10-09 18h33.04.014668 +0530
101,0,101,[0.29833333333333334],[-0.39],[1],[0],[0],1.673872427,,0,101,0,178.883319,,10,178.8679103,178.883319,178.883319,0.028881215,180.542325,[0.29833333333333334],[-0.39],[1],[0],[0],1.673872427,1,2024-10-09_18h32.51.122,VISUALSEARCH,2024.2.1,42.04077774,2024-10-09 18h33.04.014668 +0530
102,0,102,[0.25666666666666665],[0.305],[1],[0],[0],1.390953213,,0,102,0,180.5677441,,5,180.5567132,180.5677441,180.5677441,0.014229605,181.9481267,[0.25666666666666665],[0.305],[1],[0],[0],1.390953213,1,2024-10-09_18h32.51.122,VISUALSEARCH,2024.2.1,42.04077774,2024-10-09 18h33.04.014668 +0530
103,0,103,[-0.22333333333333333],[-0.255],[1],[0],[0],1.34857496,,0,103,0,181.9738835,,5,181.9626918,181.9738835,181.9738835,0.01434216,183.3116581,[-0.22333333333333333],[-0.255],[1],[0],[0],1.34857496,1,2024-10-09_18h32.51.122,VISUALSEARCH,2024.2.1,42.04077774,2024-10-09 18h33.04.014668 +0530
104,0,104,[0.37666666666666665],[0.05],[1],[0],[0],1.193272971,,0,104,0,183.3368878,,5,183.3266849,183.3368878,183.3368878,0.014900341,184.5206373,[0.37666666666666665],[0.05],[1],[0],[0],1.193272971,1,2024-10-09_18h32.51.122,VISUALSEARCH,2024.2.1,42.04077774,2024-10-09 18h33.04.014668 +0530
105,0,105,[0.12333333333333334],[0.26],[1],[0],[0],1.232730939,,0,105,0,184.5635308,,10,184.5481519,184.5635308,184.5635308,0.02737278,185.7813947,[0.12333333333333334],[0.26],[1],[0],[0],1.232730939,1,2024-10-09_18h32.51.122,VISUALSEARCH,2024.2.1,42.04077774,2024-10-09 18h33.04.014668 +0530
106,0,106,[-0.16333333333333333],[-0.4483333333333333],[1],[0],[0],1.979369487,,0,106,0,185.8243472,,10,185.8090701,185.8243472,185.8243472,0.027487398,187.7888713,[-0.16333333333333333],[-0.4483333333333333],[1],[0],[0],1.979369487,1,2024-10-09_18h32.51.122,VISUALSEARCH,2024.2.1,42.04077774,2024-10-09 18h33.04.014668 +0530
107,0,107,[-0.43666666666666665],[-0.2633333333333333],[1],[0],[0],2.354632444,,0,107,0,187.8403563,,10,187.819934,187.8403563,187.8403563,0.030893091,190.1749381,[-0.43666666666666665],[-0.2633333333333333],[1],[0],[0],2.354632444,1,2024-10-09_18h32.51.122,VISUALSEARCH,2024.2.1,42.04077774,2024-10-09 18h33.04.014668 +0530
108,0,108,[0.4166666666666667],[-0.41333333333333333],[1],[0],[0],2.018144202,,0,108,0,190.200914,,5,190.1893672,190.200914,190.200914,0.014244966,192.2079279,[0.4166666666666667],[-0.41333333333333333],[1],[0],[0],2.018144202,1,2024-10-09_18h32.51.122,VISUALSEARCH,2024.2.1,42.04077774,2024-10-09 18h33.04.014668 +0530
109,0,109,[-0.27],[-0.3333333333333333],[1],[0],[0],1.456721365,,0,109,0,192.2526312,,10,192.2369929,192.2526312,192.2526312,0.028931433,193.6941495,[-0.27],[-0.3333333333333333],[1],[0],[0],1.456721365,1,2024-10-09_18h32.51.122,VISUALSEARCH,2024.2.1,42.04077774,2024-10-09 18h33.04.014668 +0530
110,0,110,[0.008333333333333333],[-0.255],[1],[0],[0],1.330652151,,0,110,0,193.7212477,,5,193.7098126,193.7212477,193.7212477,0.01548238,195.0408551,[0.008333333333333333],[-0.255],[1],[0],[0],1.330652151,1,2024-10-09_18h32.51.122,VISUALSEARCH,2024.2.1,42.04077774,2024-10-09 18h33.04.014668 +0530
111,0,111,[-0.015],[0.18166666666666667],[1],[0],[0],1.141418789,,0,111,0,195.0834334,,10,195.0681665,195.0834334,195.0834334,0.027189705,196.2099911,[-0.015],[0.18166666666666667],[1],[0],[0],1.141418789,1,2024-10-09_18h32.51.122,VISUALSEARCH,2024.2.1,42.04077774,2024-10-09 18h33.04.014668 +0530
112,0,112,[0.4866666666666667],[-0.26],[1],[0],[0],2.009203329,,0,112,0,196.2529838,,10,196.2373078,196.2529838,196.2529838,0.027160091,198.2471211,[0.4866666666666667],[-0.26],[1],[0],[0],2.009203329,1,2024-10-09_18h32.51.122,VISUALSEARCH,2024.2.1,42.04077774,2024-10-09 18h33.04.014668 +0530
113,0,113,[0.3333333333333333],[0.34833333333333333],[1],[0],[0],1.462328417,,0,113,0,198.2928301,,10,198.2749426,198.2928301,198.2928301,0.027622996,199.7377281,[0.3333333333333333],[0.34833333333333333],[1],[0],[0],1.462328417,1,2024-10-09_18h32.51.122,VISUALSEARCH,2024.2.1,42.04077774,2024-10-09 18h33.04.014668 +0530
114,0,114,[-0.42],[-0.043333333333333335],[1],[0],[0],1.274657872,,0,114,0,199.7648987,,5,199.7533066,199.7648987,199.7648987,0.015422289,201.0284545,[-0.42],[-0.043333333333333335],[1],[0],[0],1.274657872,1,2024-10-09_18h32.51.122,VISUALSEARCH,2024.2.1,42.04077774,2024-10-09 18h33.04.014668 +0530
115,0,115,[-0.24166666666666667],[0.29333333333333333],[1],[0],[0],1.173267664,,0,115,0,201.071332,,10,201.0558886,201.071332,201.071332,0.027312919,202.2295925,[-0.24166666666666667],[0.29333333333333333],[1],[0],[0],1.173267664,1,2024-10-09_18h32.51.122,VISUALSEARCH,2024.2.1,42.04077774,2024-10-09 18h33.04.014668 +0530
116,0,116,[0.215],[0.12333333333333334],[1],[0],[0],1.098538021,,0,116,0,202.2561333,,5,202.2447821,202.2561333,202.2561333,0.01503115,203.3438096,[0.215],[0.12333333333333334],[1],[0],[0],1.098538021,1,2024-10-09_18h32.51.122,VISUALSEARCH,2024.2.1,42.04077774,2024-10-09 18h33.04.014668 +0530
117,0,117,[0.02666666666666667],[0.27],[1],[0],[0],1.90206836,,0,117,0,203.3873232,,10,203.3716857,203.3873232,203.3873232,0.027744201,205.2741827,[0.02666666666666667],[0.27],[1],[0],[0],1.90206836,1,2024-10-09_18h32.51.122,VISUALSEARCH,2024.2.1,42.04077774,2024-10-09 18h33.04.014668 +0530
118,0,118,[0.13],[-0.14],[1],[0],[0],1.14650558,,0,118,0,205.299705,,5,205.2881895,205.299705,205.299705,0.013825185,206.435094,[0.13],[-0.14],[1],[0],[0],1.14650558,1,2024-10-09_18h32.51.122,VISUALSEARCH,2024.2.1,42.04077774,2024-10-09 18h33.04.014668 +0530
119,0,119,[0.455],[0.16],[1],[0],[0],1.908053924,,0,119,0,206.4773745,,10,206.4621754,206.4773745,206.4773745,0.026962374,208.3706679,[0.455],[0.16],[1],[0],[0],1.908053924,1,2024-10-09_18h32.51.122,VISUALSEARCH,2024.2.1,42.04077774,2024-10-09 18h33.04.014668 +0530
120,0,120,[0.205],[0.3233333333333333],[1],[0],[0],1.071432632,,0,120,0,208.3959141,,5,208.3850151,208.3959141,208.3959141,0.014189505,209.4568408,[0.205],[0.3233333333333333],[1],[0],[0],1.071432632,1,2024-10-09_18h32.51.122,VISUALSEARCH,2024.2.1,42.04077774,2024-10-09 18h33.04.014668 +0530
121,0,121,[0.2833333333333333],[0.43833333333333335],[1],[0],[0],2.014980367,,0,121,0,209.4832113,,5,209.4715864,209.4832113,209.4832113,0.014569676,211.4869561,[0.2833333333333333],[0.43833333333333335],[1],[0],[0],2.014980367,1,2024-10-09_18h32.51.122,VISUALSEARCH,2024.2.1,42.04077774,2024-10-09 18h33.04.014668 +0530
122,0,122,[0.2833333333333333],[0.43833333333333335],[1],[0],[0],0.129956579,,0,122,0,211.5120995,,5,211.5023897,211.5120995,211.5120995,0.015309467,211.6328394,[0.2833333333333333],[0.43833333333333335],[1],[0],[0],0.129956579,1,2024-10-09_18h32.51.122,VISUALSEARCH,2024.2.1,42.04077774,2024-10-09 18h33.04.014668 +0530
123,0,123,[0.4],[0.07333333333333333],[1],[0],[0],1.51506475,,0,123,0,211.6582098,,5,211.6479566,211.6582098,211.6582098,0.014994301,213.1633908,[0.4],[0.07333333333333333],[1],[0],[0],1.51506475,1,2024-10-09_18h32.51.122,VISUALSEARCH,2024.2.1,42.04077774,2024-10-09 18h33.04.014668 +0530
124,0,124,[-0.20166666666666666],[-0.31],[1],[0],[0],1.60780101,,0,124,0,213.2064278,,10,213.1912934,213.2064278,213.2064278,0.02777632,214.7996244,[-0.20166666666666666],[-0.31],[1],[0],[0],1.60780101,1,2024-10-09_18h32.51.122,VISUALSEARCH,2024.2.1,42.04077774,2024-10-09 18h33.04.014668 +0530
125,0,125,[0.18333333333333332],[-0.08833333333333333],[1],[0],[0],1.213689003,,0,125,0,214.8414872,,10,214.8263598,214.8414872,214.8414872,0.026581639,216.0404174,[0.18333333333333332],[-0.08833333333333333],[1],[0],[0],1.213689003,1,2024-10-09_18h32.51.122,VISUALSEARCH,2024.2.1,42.04077774,2024-10-09 18h33.04.014668 +0530
126,0,126,[0.32166666666666666],[-0.23333333333333334],[1],[0],[0],1.379503446,,0,126,0,216.0680498,,5,216.0558757,216.0680498,216.0680498,0.015286721,217.4359155,[0.32166666666666666],[-0.23333333333333334],[1],[0],[0],1.379503446,1,2024-10-09_18h32.51.122,VISUALSEARCH,2024.2.1,42.04077774,2024-10-09 18h33.04.014668 +0530
127,0,127,[0.09],[0.07],[1],[0],[0],1.230177994,,0,127,0,217.4800558,,10,217.4637596,217.4800558,217.4800558,0.027673847,218.6945024,[0.09],[0.07],[1],[0],[0],1.230177994,1,2024-10-09_18h32.51.122,VISUALSEARCH,2024.2.1,42.04077774,2024-10-09 18h33.04.014668 +0530
128,0,128,[0.4],[-0.44166666666666665],[1],[0],[0],2.275493818,,0,128,0,218.7375561,,10,218.7219257,218.7375561,218.7375561,0.027269989,220.9979221,[0.4],[-0.44166666666666665],[1],[0],[0],2.275493818,1,2024-10-09_18h32.51.122,VISUALSEARCH,2024.2.1,42.04077774,2024-10-09 18h33.04.014668 +0530
129,0,129,[-0.43166666666666664],[0.11833333333333333],[1],[0],[0],1.675747529,,0,129,0,221.0237663,,5,221.0130841,221.0237663,221.0237663,0.015002874,222.6893325,[-0.43166666666666664],[0.11833333333333333],[1],[0],[0],1.675747529,1,2024-10-09_18h32.51.122,VISUALSEARCH,2024.2.1,42.04077774,2024-10-09 18h33.04.014668 +0530
130,0,130,[0.016666666666666666],[0.16333333333333333],[1],[0],[0],0.991360916,,0,130,0,222.7157074,,5,222.7043637,222.7157074,222.7157074,0.01490324,223.6961164,[0.016666666666666666],[0.16333333333333333],[1],[0],[0],0.991360916,1,2024-10-09_18h32.51.122,VISUALSEARCH,2024.2.1,42.04077774,2024-10-09 18h33.04.014668 +0530
131,0,131,[-0.12666666666666668],[0.215],[1],[0],[0],1.003248158,,0,131,0,223.739712,,10,223.7243429,223.739712,223.739712,0.028104486,224.7279865,[-0.12666666666666668],[0.215],[1],[0],[0],1.003248158,1,2024-10-09_18h32.51.122,VISUALSEARCH,2024.2.1,42.04077774,2024-10-09 18h33.04.014668 +0530
132,0,132,[0.2783333333333333],[-0.10666666666666667],[1],[0],[0],1.456815577,,0,132,0,224.7714753,,10,224.755636,224.7714753,224.7714753,0.027498654,226.2128799,[0.2783333333333333],[-0.10666666666666667],[1],[0],[0],1.456815577,1,2024-10-09_18h32.51.122,VISUALSEARCH,2024.2.1,42.04077774,2024-10-09 18h33.04.014668 +0530
133,0,133,[0.09166666666666666],[0.4116666666666667],[1],[0],[0],1.591435816,,0,133,0,226.2563722,,10,226.241015,226.2563722,226.2563722,0.027978569,227.8328355,[0.09166666666666666],[0.4116666666666667],[1],[0],[0],1.591435816,1,2024-10-09_18h32.51.122,VISUALSEARCH,2024.2.1,42.04077774,2024-10-09 18h33.04.014668 +0530
134,0,134,[0.30333333333333334],[-0.19333333333333333],[1],[0],[0],2.023655282,,0,134,0,227.8774339,,10,227.8615171,227.8774339,227.8774339,0.028539035,229.8856348,[0.30333333333333334],[-0.19333333333333333],[1],[0],[0],2.023655282,1,2024-10-09_18h32.51.122,VISUALSEARCH,2024.2.1,42.04077774,2024-10-09 18h33.04.014668 +0530
135,0,135,[0.45],[-0.06],[1],[0],[0],1.697699949,,0,135,0,229.9299182,,10,229.9145926,229.9299182,229.9299182,0.028778809,231.6128106,[0.45],[-0.06],[1],[0],[0],1.697699949,1,2024-10-09_18h32.51.122,VISUALSEARCH,2024.2.1,42.04077774,2024-10-09 18h33.04.014668 +0530
136,0,136,[-0.4083333333333333],[0.3016666666666667],[1],[0],[0],1.46223248,,0,136,0,231.6391877,,5,231.6282188,231.6391877,231.6391877,0.015255867,233.0909555,[-0.4083333333333333],[0.3016666666666667],[1],[0],[0],1.46223248,1,2024-10-09_18h32.51.122,VISUALSEARCH,2024.2.1,42.04077774,2024-10-09 18h33.04.014668 +0530
137,0,137,[0.11333333333333333],[0.3333333333333333],[1],[0],[0],1.087200352,,0,137,0,233.1330558,,10,233.1180325,233.1330558,233.1330558,0.026952751,234.2058217,[0.11333333333333333],[0.3333333333333333],[1],[0],[0],1.087200352,1,2024-10-09_18h32.51.122,VISUALSEARCH,2024.2.1,42.04077774,2024-10-09 18h33.04.014668 +0530
138,0,138,[0.25333333333333335],[-0.06],[1],[0],[0],1.266059538,,0,138,0,234.2487023,,10,234.2333869,234.2487023,234.2487023,0.027408519,235.4998653,[0.25333333333333335],[-0.06],[1],[0],[0],1.266059538,1,2024-10-09_18h32.51.122,VISUALSEARCH,2024.2.1,42.04077774,2024-10-09 18h33.04.014668 +0530
139,0,139,[-0.2866666666666667],[0.06666666666666667],[1],[0],[0],1.608931581,,0,139,0,235.5432241,,10,235.5278577,235.5432241,235.5432241,0.027822554,237.1372332,[-0.2866666666666667],[0.06666666666666667],[1],[0],[0],1.608931581,1,2024-10-09_18h32.51.122,VISUALSEARCH,2024.2.1,42.04077774,2024-10-09 18h33.04.014668 +0530
140,0,140,[-0.2733333333333333],[-0.435],[1],[0],[0],1.945077859,,0,140,0,237.163648,,5,237.1518953,237.163648,237.163648,0.014366064,239.0974343,[-0.2733333333333333],[-0.435],[1],[0],[0],1.945077859,1,2024-10-09_18h32.51.122,VISUALSEARCH,2024.2.1,42.04077774,2024-10-09 18h33.04.014668 +0530
141,0,141,[-0.115],[-0.315],[1],[0],[0],1.31908716,,0,141,0,239.1233108,,5,239.1116653,239.1233108,239.1233108,0.014095839,240.4313149,[-0.115],[-0.315],[1],[0],[0],1.31908716,1,2024-10-09_18h32.51.122,VISUALSEARCH,2024.2.1,42.04077774,2024-10-09 18h33.04.014668 +0530
142,0,142,[-0.165],[0.44333333333333336],[1],[0],[0],2.357413502,,0,142,0,240.4763292,,10,240.4606563,240.4763292,240.4763292,0.029158696,242.8184499,[-0.165],[0.44333333333333336],[1],[0],[0],2.357413502,1,2024-10-09_18h32.51.122,VISUALSEARCH,2024.2.1,42.04077774,2024-10-09 18h33.04.014668 +0530
143,0,143,[-0.3983333333333333],[0.345],[1],[0],[0],1.226599602,,0,143,0,242.8434392,,5,242.832898,242.8434392,242.8434392,0.01426872,244.0599148,[-0.3983333333333333],[0.345],[1],[0],[0],1.226599602,1,2024-10-09_18h32.51.122,VISUALSEARCH,2024.2.1,42.04077774,2024-10-09 18h33.04.014668 +0530
144,0,144,[-0.075],[0.10833333333333334],[1],[0],[0],1.10331334,,0,144,0,244.0856396,,5,244.074346,244.0856396,244.0856396,0.014302683,245.1781297,[-0.075],[0.10833333333333334],[1],[0],[0],1.10331334,1,2024-10-09_18h32.51.122,VISUALSEARCH,2024.2.1,42.04077774,2024-10-09 18h33.04.014668 +0530
145,0,145,[0.4033333333333333],[-0.051666666666666666],[1],[0],[0],1.452707097,,0,145,0,245.2045498,,5,245.192767,245.2045498,245.2045498,0.014513511,246.6458973,[0.4033333333333333],[-0.051666666666666666],[1],[0],[0],1.452707097,1,2024-10-09_18h32.51.122,VISUALSEARCH,2024.2.1,42.04077774,2024-10-09 18h33.04.014668 +0530
146,0,146,[-0.48833333333333334],[-0.19833333333333333],[1],[0],[0],1.311278723,,0,146,0,246.6901737,,10,246.6735545,246.6901737,246.6901737,0.027515921,247.9853078,[-0.48833333333333334],[-0.19833333333333333],[1],[0],[0],1.311278723,1,2024-10-09_18h32.51.122,VISUALSEARCH,2024.2.1,42.04077774,2024-10-09 18h33.04.014668 +0530
147,0,147,[-0.45166666666666666],[0.14333333333333334],[1],[0],[0],1.338186546,,0,147,0,248.0294406,,10,248.0136342,248.0294406,248.0294406,0.028165683,249.3522014,[-0.45166666666666666],[0.14333333333333334],[1],[0],[0],1.338186546,1,2024-10-09_18h32.51.122,VISUALSEARCH,2024.2.1,42.04077774,2024-10-09 18h33.04.014668 +0530
148,0,148,[-0.2],[0.10333333333333333],[1],[0],[0],1.930027201,,0,148,0,249.3788144,,5,249.3680197,249.3788144,249.3788144,0.015666401,251.2984208,[-0.2],[0.10333333333333333],[1],[0],[0],1.930027201,1,2024-10-09_18h32.51.122,VISUALSEARCH,2024.2.1,42.04077774,2024-10-09 18h33.04.014668 +0530
149,0,149,[-0.4166666666666667],[-0.021666666666666667],[1],[0],[0],1.97776604,,0,149,0,251.3251943,,5,251.3136702,251.3251943,251.3251943,0.015100095,253.2918815,[-0.4166666666666667],[-0.021666666666666667],[1],[0],[0],1.97776604,1,2024-10-09_18h32.51.122,VISUALSEARCH,2024.2.1,42.04077774,2024-10-09 18h33.04.014668 +0530
150,0,150,[0.21833333333333332],[-0.09166666666666666],[1],[0],[0],1.360029698,,0,150,0,253.3183153,,5,253.3064396,253.3183153,253.3183153,0.014428516,254.6668868,[0.21833333333333332],[-0.09166666666666666],[1],[0],[0],1.360029698,1,2024-10-09_18h32.51.122,VISUALSEARCH,2024.2.1,42.04077774,2024-10-09 18h33.04.014668 +0530
151,0,151,[0.11],[-0.44],[1],[0],[0],1.499186984,,0,151,0,254.6923304,,5,254.6824204,254.6923304,254.6923304,0.015403858,256.1822432,[0.11],[-0.44],[1],[0],[0],1.499186984,1,2024-10-09_18h32.51.122,VISUALSEARCH,2024.2.1,42.04077774,2024-10-09 18h33.04.014668 +0530
152,0,152,[-0.4683333333333333],[-0.12333333333333334],[1],[0],[0],1.405180547,,0,152,0,256.2103877,,5,256.1988435,256.2103877,256.2103877,0.016421227,257.6044106,[-0.4683333333333333],[-0.12333333333333334],[1],[0],[0],1.405180547,1,2024-10-09_18h32.51.122,VISUALSEARCH,2024.2.1,42.04077774,2024-10-09 18h33.04.014668 +0530
153,0,153,[0.3466666666666667],[0.16166666666666665],[1],[0],[0],1.287820062,,0,153,0,257.6309645,,5,257.6204385,257.6309645,257.6309645,0.015904887,258.9086502,[0.3466666666666667],[0.16166666666666665],[1],[0],[0],1.287820062,1,2024-10-09_18h32.51.122,VISUALSEARCH,2024.2.1,42.04077774,2024-10-09 18h33.04.014668 +0530
154,0,154,[0.33166666666666667],[0.38666666666666666],[1],[0],[0],1.567410155,,0,154,0,258.9344202,,5,258.9238982,258.9344202,258.9344202,0.015121459,260.4918231,[0.33166666666666667],[0.38666666666666666],[1],[0],[0],1.567410155,1,2024-10-09_18h32.51.122,VISUALSEARCH,2024.2.1,42.04077774,2024-10-09 18h33.04.014668 +0530
155,0,155,[0.44166666666666665],[0.455],[1],[0],[0],1.776531049,,0,155,0,260.5230308,,5,260.5110824,260.5230308,260.5230308,0.019025844,262.2880224,[0.44166666666666665],[0.455],[1],[0],[0],1.776531049,1,2024-10-09_18h32.51.122,VISUALSEARCH,2024.2.1,42.04077774,2024-10-09 18h33.04.014668 +0530
156,0,156,[0.13666666666666666],[0.435],[1],[0],[0],1.185650809,,0,156,0,262.3315418,,10,262.3162152,262.3315418,262.3315418,0.02806699,263.5024108,[0.13666666666666666],[0.435],[1],[0],[0],1.185650809,1,2024-10-09_18h32.51.122,VISUALSEARCH,2024.2.1,42.04077774,2024-10-09 18h33.04.014668 +0530
157,0,157,[-0.44666666666666666],[-0.44],[1],[0],[0],1.374635991,,0,157,0,263.5296434,,5,263.5175659,263.5296434,263.5296434,0.014970996,264.8926597,[-0.44666666666666666],[-0.44],[1],[0],[0],1.374635991,1,2024-10-09_18h32.51.122,VISUALSEARCH,2024.2.1,42.04077774,2024-10-09 18h33.04.014668 +0530
158,0,158,[0.475],[-0.04833333333333333],[1],[0],[0],1.259632091,,0,158,0,264.9183538,,5,264.9070965,264.9183538,264.9183538,0.014297266,266.1671414,[0.475],[-0.04833333333333333],[1],[0],[0],1.259632091,1,2024-10-09_18h32.51.122,VISUALSEARCH,2024.2.1,42.04077774,2024-10-09 18h33.04.014668 +0530
159,0,159,[0.17666666666666667],[-0.4083333333333333],[1],[0],[0],1.690884618,,0,159,0,266.2100967,,10,266.1946548,266.2100967,266.2100967,0.027384025,267.8861468,[0.17666666666666667],[-0.4083333333333333],[1],[0],[0],1.690884618,1,2024-10-09_18h32.51.122,VISUALSEARCH,2024.2.1,42.04077774,2024-10-09 18h33.04.014668 +0530
160,0,160,[0.03333333333333333],[0.09166666666666666],[1],[0],[0],2.978597494,,0,160,0,267.9294126,,10,267.9134533,267.9294126,267.9294126,0.027028621,270.8924871,[0.03333333333333333],[0.09166666666666666],[1],[0],[0],2.978597494,1,2024-10-09_18h32.51.122,VISUALSEARCH,2024.2.1,42.04077774,2024-10-09 18h33.04.014668 +0530
161,0,161,[-0.39666666666666667],[0.17833333333333334],[1],[0],[0],1.735822261,,0,161,0,270.9190658,,5,270.9077973,270.9190658,270.9190658,0.015154578,272.6441649,[-0.39666666666666667],[0.17833333333333334],[1],[0],[0],1.735822261,1,2024-10-09_18h32.51.122,VISUALSEARCH,2024.2.1,42.04077774,2024-10-09 18h33.04.014668 +0530
162,0,162,[-0.28],[-0.28],[1],[0],[0],1.457133388,,0,162,0,272.6703035,,5,272.6592586,272.6703035,272.6703035,0.014965314,274.1168627,[-0.28],[-0.28],[1],[0],[0],1.457133388,1,2024-10-09_18h32.51.122,VISUALSEARCH,2024.2.1,42.04077774,2024-10-09 18h33.04.014668 +0530
163,0,163,[0.4033333333333333],[0.42],[1],[0],[0],2.350722492,,0,163,0,274.161327,,10,274.1460491,274.161327,274.161327,0.02902165,276.4973079,[0.4033333333333333],[0.42],[1],[0],[0],2.350722492,1,2024-10-09_18h32.51.122,VISUALSEARCH,2024.2.1,42.04077774,2024-10-09 18h33.04.014668 +0530
164,0,164,[0.275],[-0.47],[1],[0],[0],2.020987688,,0,164,0,276.5243236,,5,276.5127659,276.5243236,276.5243236,0.01530366,278.5341969,[0.275],[-0.47],[1],[0],[0],2.020987688,1,2024-10-09_18h32.51.122,VISUALSEARCH,2024.2.1,42.04077774,2024-10-09 18h33.04.014668 +0530
165,0,165,[0.13666666666666666],[0.37833333333333335],[1],[0],[0],1.736769023,,0,165,0,278.5779097,,10,278.5621084,278.5779097,278.5779097,0.027768632,280.2993852,[0.13666666666666666],[0.37833333333333335],[1],[0],[0],1.736769023,1,2024-10-09_18h32.51.122,VISUALSEARCH,2024.2.1,42.04077774,2024-10-09 18h33.04.014668 +0530
166,0,166,[0.36],[-0.24333333333333335],[1],[0],[0],1.634224906,,0,166,0,280.3421556,,10,280.3261722,280.3421556,280.3421556,0.026607419,281.9608074,[0.36],[-0.24333333333333335],[1],[0],[0],1.634224906,1,2024-10-09_18h32.51.122,VISUALSEARCH,2024.2.1,42.04077774,2024-10-09 18h33.04.014668 +0530
167,0,167,[-0.21666666666666667],[-0.18333333333333332],[1],[0],[0],1.279890447,,0,167,0,281.9877204,,5,281.9757433,281.9877204,281.9877204,0.014772806,283.2561944,[-0.21666666666666667],[-0.18333333333333332],[1],[0],[0],1.279890447,1,2024-10-09_18h32.51.122,VISUALSEARCH,2024.2.1,42.04077774,2024-10-09 18h33.04.014668 +0530
168,0,168,[0.225],[-0.38333333333333336],[1],[0],[0],1.666490339,,0,168,0,283.3004108,,10,283.2843961,283.3004108,283.3004108,0.02807964,284.9514105,[0.225],[-0.38333333333333336],[1],[0],[0],1.666490339,1,2024-10-09_18h32.51.122,VISUALSEARCH,2024.2.1,42.04077774,2024-10-09 18h33.04.014668 +0530
169,0,169,[0.19333333333333333],[-0.325],[1],[0],[0],1.036794833,,0,169,0,285.0698715,,10,285.0539746,285.0698715,285.0698715,0.10240112,286.0911952,[0.19333333333333333],[-0.325],[1],[0],[0],1.036794833,1,2024-10-09_18h32.51.122,VISUALSEARCH,2024.2.1,42.04077774,2024-10-09 18h33.04.014668 +0530
170,0,170,[-0.295],[-0.295],[1],[0],[0],1.612792805,,0,170,0,286.1346028,,10,286.1187692,286.1346028,286.1346028,0.027419463,287.7320571,[-0.295],[-0.295],[1],[0],[0],1.612792805,1,2024-10-09_18h32.51.122,VISUALSEARCH,2024.2.1,42.04077774,2024-10-09 18h33.04.014668 +0530
171,0,171,[0.21833333333333332],[-0.13166666666666665],[1],[0],[0],1.185149999,,0,171,0,287.7572488,,5,287.7466677,287.7572488,287.7572488,0.0144572,288.9324525,[0.21833333333333332],[-0.13166666666666665],[1],[0],[0],1.185149999,1,2024-10-09_18h32.51.122,VISUALSEARCH,2024.2.1,42.04077774,2024-10-09 18h33.04.014668 +0530
172,0,172,[0.22833333333333333],[-0.41],[1],[0],[0],1.492931436,,0,172,0,288.9578169,,5,288.9466499,288.9578169,288.9578169,0.014029685,290.439985,[0.22833333333333333],[-0.41],[1],[0],[0],1.492931436,1,2024-10-09_18h32.51.122,VISUALSEARCH,2024.2.1,42.04077774,2024-10-09 18h33.04.014668 +0530
173,0,173,[-0.23166666666666666],[0.14166666666666666],[1],[0],[0],1.190134857,,0,173,0,290.465665,,5,290.4542218,290.465665,290.465665,0.01411244,291.644895,[-0.23166666666666666],[0.14166666666666666],[1],[0],[0],1.190134857,1,2024-10-09_18h32.51.122,VISUALSEARCH,2024.2.1,42.04077774,2024-10-09 18h33.04.014668 +0530
174,0,174,[-0.36333333333333334],[0.15833333333333333],[1],[0],[0],1.422462085,,0,174,0,291.6710627,,5,291.6595754,291.6710627,291.6710627,0.014554977,293.0824821,[-0.36333333333333334],[0.15833333333333333],[1],[0],[0],1.422462085,1,2024-10-09_18h32.51.122,VISUALSEARCH,2024.2.1,42.04077774,2024-10-09 18h33.04.014668 +0530
175,0,175,[-0.2783333333333333],[0.18333333333333332],[1],[0],[0],1.241520865,,0,175,0,293.125446,,10,293.1102621,293.125446,293.125446,0.027648327,294.352162,[-0.2783333333333333],[0.18333333333333332],[1],[0],[0],1.241520865,1,2024-10-09_18h32.51.122,VISUALSEARCH,2024.2.1,42.04077774,2024-10-09 18h33.04.014668 +0530
176,0,176,[-0.26],[0.07166666666666667],[1],[0],[0],1.294425586,,0,176,0,294.3782607,,5,294.3672943,294.3782607,294.3782607,0.014980101,295.6622093,[-0.26],[0.07166666666666667],[1],[0],[0],1.294425586,1,2024-10-09_18h32.51.122,VISUALSEARCH,2024.2.1,42.04077774,2024-10-09 18h33.04.014668 +0530
177,0,177,[-0.195],[0.041666666666666664],[1],[0],[0],1.08359193,,0,177,0,295.7058249,,10,295.6899571,295.7058249,295.7058249,0.027619661,296.7739573,[-0.195],[0.041666666666666664],[1],[0],[0],1.08359193,1,2024-10-09_18h32.51.122,VISUALSEARCH,2024.2.1,42.04077774,2024-10-09 18h33.04.014668 +0530
178,0,178,[-0.39666666666666667],[-0.37166666666666665],[1],[0],[0],2.022757796,,0,178,0,296.8182592,,10,296.802918,296.8182592,296.8182592,0.028798643,298.8262757,[-0.39666666666666667],[-0.37166666666666665],[1],[0],[0],2.022757796,1,2024-10-09_18h32.51.122,VISUALSEARCH,2024.2.1,42.04077774,2024-10-09 18h33.04.014668 +0530
179,0,179,[0.056666666666666664],[-0.0016666666666666668],[1],[0],[0],2.549732729,,0,179,0,298.8742948,,10,298.8580913,298.8742948,298.8742948,0.031560739,301.4082489,[0.056666666666666664],[-0.0016666666666666668],[1],[0],[0],2.549732729,1,2024-10-09_18h32.51.122,VISUALSEARCH,2024.2.1,42.04077774,2024-10-09 18h33.04.014668 +0530
180,0,180,[-0.37666666666666665],[0.4666666666666667],[1],[0],[0],3.703253883,,0,180,0,301.4522732,,10,301.4360605,301.4522732,301.4522732,0.027651965,305.1397539,[-0.37666666666666665],[0.4666666666666667],[1],[0],[0],3.703253883,1,2024-10-09_18h32.51.122,VISUALSEARCH,2024.2.1,42.04077774,2024-10-09 18h33.04.014668 +0530
181,0,181,[0.10333333333333333],[-0.245],[1],[0],[0],1.686619922,,0,181,0,305.1659712,,5,305.1543106,305.1659712,305.1659712,0.014395859,306.8413316,[0.10333333333333333],[-0.245],[1],[0],[0],1.686619922,1,2024-10-09_18h32.51.122,VISUALSEARCH,2024.2.1,42.04077774,2024-10-09 18h33.04.014668 +0530
182,0,182,[-0.008333333333333333],[0.056666666666666664],[1],[0],[0],1.425743391,,0,182,0,306.8662065,,5,306.8550175,306.8662065,306.8662065,0.013562765,308.2811853,[-0.008333333333333333],[0.056666666666666664],[1],[0],[0],1.425743391,1,2024-10-09_18h32.51.122,VISUALSEARCH,2024.2.1,42.04077774,2024-10-09 18h33.04.014668 +0530
183,0,183,[-0.06166666666666667],[0.08166666666666667],[1],[0],[0],0.892408633,,0,183,0,308.3066221,,5,308.2955714,308.3066221,308.3066221,0.01425486,309.1883696,[-0.06166666666666667],[0.08166666666666667],[1],[0],[0],0.892408633,1,2024-10-09_18h32.51.122,VISUALSEARCH,2024.2.1,42.04077774,2024-10-09 18h33.04.014668 +0530
184,0,184,[0.37166666666666665],[-0.23666666666666666],[1],[0],[0],2.1753468,,0,184,0,309.2337023,,10,309.2178898,309.2337023,309.2337023,0.029384612,311.3936757,[0.37166666666666665],[-0.23666666666666666],[1],[0],[0],2.1753468,1,2024-10-09_18h32.51.122,VISUALSEARCH,2024.2.1,42.04077774,2024-10-09 18h33.04.014668 +0530
185,0,185,[-0.12333333333333334],[-0.36666666666666664],[1],[0],[0],1.419506543,,0,185,0,311.4186224,,5,311.4076508,311.4186224,311.4186224,0.013832485,312.8276362,[-0.12333333333333334],[-0.36666666666666664],[1],[0],[0],1.419506543,1,2024-10-09_18h32.51.122,VISUALSEARCH,2024.2.1,42.04077774,2024-10-09 18h33.04.014668 +0530
186,0,186,[0.0],[0.31333333333333335],[1],[0],[0],2.35013053,,0,186,0,312.8711411,,10,312.8552355,312.8711411,312.8711411,0.027465006,315.205995,[0.0],[0.31333333333333335],[1],[0],[0],2.35013053,1,2024-10-09_18h32.51.122,VISUALSEARCH,2024.2.1,42.04077774,2024-10-09 18h33.04.014668 +0530
187,0,187,[-0.5116666666666667],[-0.3566666666666667],[1],[0],[0],2.370235668,,0,187,0,315.24996,,10,315.2344964,315.24996,315.24996,0.028261526,317.6055168,[-0.5116666666666667],[-0.3566666666666667],[1],[0],[0],2.370235668,1,2024-10-09_18h32.51.122,VISUALSEARCH,2024.2.1,42.04077774,2024-10-09 18h33.04.014668 +0530
188,0,188,[-0.215],[-0.12666666666666668],[1],[0],[0],1.561425602,,0,188,0,317.6526708,,10,317.6364579,317.6526708,317.6526708,0.030690631,319.1983348,[-0.215],[-0.12666666666666668],[1],[0],[0],1.561425602,1,2024-10-09_18h32.51.122,VISUALSEARCH,2024.2.1,42.04077774,2024-10-09 18h33.04.014668 +0530
189,0,189,[-0.32],[-0.20333333333333334],[1],[0],[0],3.092396084,,0,189,0,319.2249454,,5,319.2135847,319.2249454,319.2249454,0.015096242,322.3063954,[-0.32],[-0.20333333333333334],[1],[0],[0],3.092396084,1,2024-10-09_18h32.51.122,VISUALSEARCH,2024.2.1,42.04077774,2024-10-09 18h33.04.014668 +0530
190,0,190,[0.14666666666666667],[0.14666666666666667],[1],[0],[0],1.309933437,,0,190,0,322.332,,5,322.3208713,322.332,322.332,0.014344706,323.6312713,[0.14666666666666667],[0.14666666666666667],[1],[0],[0],1.309933437,1,2024-10-09_18h32.51.122,VISUALSEARCH,2024.2.1,42.04077774,2024-10-09 18h33.04.014668 +0530
191,0,191,[-0.16],[-0.21],[1],[0],[0],1.498275605,,0,191,0,323.6572496,,5,323.6455976,323.6572496,323.6572496,0.014176837,325.1446618,[-0.16],[-0.21],[1],[0],[0],1.498275605,1,2024-10-09_18h32.51.122,VISUALSEARCH,2024.2.1,42.04077774,2024-10-09 18h33.04.014668 +0530
192,0,192,[0.3466666666666667],[0.31833333333333336],[1],[0],[0],1.961391327,,0,192,0,325.1896212,,10,325.1738319,325.1896212,325.1896212,0.029041536,327.1357478,[0.3466666666666667],[0.31833333333333336],[1],[0],[0],1.961391327,1,2024-10-09_18h32.51.122,VISUALSEARCH,2024.2.1,42.04077774,2024-10-09 18h33.04.014668 +0530
193,0,193,[0.15166666666666667],[0.39666666666666667],[1],[0],[0],2.055275103,,0,193,0,327.1795742,,10,327.1640192,327.1795742,327.1795742,0.027997792,329.2197254,[0.15166666666666667],[0.39666666666666667],[1],[0],[0],2.055275103,1,2024-10-09_18h32.51.122,VISUALSEARCH,2024.2.1,42.04077774,2024-10-09 18h33.04.014668 +0530
194,0,194,[-0.016666666666666666],[-0.08666666666666667],[1],[0],[0],1.747773845,,0,194,0,329.2454388,,5,329.2336544,329.2454388,329.2454388,0.013774593,330.9819533,[-0.016666666666666666],[-0.08666666666666667],[1],[0],[0],1.747773845,1,2024-10-09_18h32.51.122,VISUALSEARCH,2024.2.1,42.04077774,2024-10-09 18h33.04.014668 +0530
195,0,195,[-0.45666666666666667],[0.17666666666666667],[1],[0],[0],1.600622137,,0,195,0,331.0082326,,5,330.9969663,331.0082326,331.0082326,0.014887472,332.5981472,[-0.45666666666666667],[0.17666666666666667],[1],[0],[0],1.600622137,1,2024-10-09_18h32.51.122,VISUALSEARCH,2024.2.1,42.04077774,2024-10-09 18h33.04.014668 +0530
196,0,196,[-0.056666666666666664],[0.0],[1],[0],[0],4.305141992,,0,196,0,332.6230271,,5,332.6124058,332.6230271,332.6230271,0.014126341,336.9182469,[-0.056666666666666664],[0.0],[1],[0],[0],4.305141992,1,2024-10-09_18h32.51.122,VISUALSEARCH,2024.2.1,42.04077774,2024-10-09 18h33.04.014668 +0530
197,0,197,[-0.03666666666666667],[0.09666666666666666],[1],[0],[0],2.234964151,,0,197,0,336.9621819,,10,336.946287,336.9621819,336.9621819,0.027832564,339.1816753,[-0.03666666666666667],[0.09666666666666666],[1],[0],[0],2.234964151,1,2024-10-09_18h32.51.122,VISUALSEARCH,2024.2.1,42.04077774,2024-10-09 18h33.04.014668 +0530
198,0,198,[-0.4633333333333333],[0.355],[1],[0],[0],1.543678622,,0,198,0,339.2086965,,5,339.1966563,339.2086965,339.2086965,0.014821456,340.7407201,[-0.4633333333333333],[0.355],[1],[0],[0],1.543678622,1,2024-10-09_18h32.51.122,VISUALSEARCH,2024.2.1,42.04077774,2024-10-09 18h33.04.014668 +0530
199,0,199,[-0.33166666666666667],[-0.03],[1],[0],[0],1.5387166109976533],199,0,199,0,340.7645654,,5,340.7547187,340.7645654,340.7645654,0.013876625,342.2939969,[-0.33166666666666667],[-0.03],[1],[0],[0],1.538716611,1,2024-10-09_18h32.51.122,VISUALSEARCH,2024.2.1,42.04077774,2024-10-09 18h33.04.014668 +0530
